Folder: CPC-code/xrd-UiO-67/pxrddata (part 16)

File: 37-30.ASC
3 3106
3.06 2589
3.12 2421
3.18 2322
3.24 2274
3.3 2194
3.36 2046
3.42 1945
3.48 1890
3.54 1808
3.6 1776
3.66 1724
3.72 1644
3.78 1598
3.84 1532
3.9 1569
3.96 1493
4.02 1411
4.08 1383
4.14 1384
4.2 1299
4.26 1268
4.32 1277
4.38 1192
4.44 1201
4.5 1213
4.56 1174
4.62 1154
4.68 1130
4.74 1107
4.8 1082
4.86 1033
4.92 1091
4.98 1062
5.04 967
5.1 977
5.16 928
5.22 990
5.28 902
5.34 907
5.4 932
5.46 911
5.52 869
5.58 828
5.64 864
5.7 834
5.76 823
5.82 836
5.88 765
5.94 848
6 773
6.06 760
6.12 736
6.18 734
6.24 770
6.3 723
6.36 684
6.42 720
6.48 664
6.54 717
6.6 744
6.66 715
6.72 680
6.78 648
6.84 688
6.9 668
6.96 720
7.02 664
7.08 693
7.14 647
7.2 664
7.26 678
7.32 601
7.38 658
7.44 683
7.5 653
7.56 664
7.62 662
7.68 652
7.74 588
7.8 645
7.86 648
7.92 613
7.98 634
8.04 612
8.1 573
8.16 592
8.22 603
8.28 620
8.34 542
8.4 629
8.46 587
8.52 613
8.58 577
8.64 649
8.7 625
8.76 619
8.82 588
8.88 579
8.94 631
9 631
9.06 587
9.12 600
9.18 598
9.24 588
9.3 611
9.36 588
9.42 609
9.48 580
9.54 632
9.6 565
9.66 557
9.72 597
9.78 573
9.84 548
9.9 529
9.96 575
10.02 562
10.08 576
10.14 511
10.2 542
10.26 622
10.32 545
10.38 552
10.44 538
10.5 520
10.56 523
10.62 546
10.68 544
10.74 552
10.8 528
10.86 547
10.92 504
10.98 527
11.04 523
11.1 532
11.16 497
11.22 535
11.28 495
11.34 545
11.4 495
11.46 521
11.52 558
11.58 494
11.64 471
11.7 561
11.76 499
11.82 528
11.88 527
11.94 506
12 479
12.06 484
12.12 517
12.18 539
12.24 534
12.3 560
12.36 532
12.42 515
12.48 506
12.54 515
12.6 535
12.66 555
12.72 504
12.78 535
12.84 546
12.9 522
12.96 546
13.02 544
13.08 560
13.14 510
13.2 560
13.26 551
13.32 541
13.38 561
13.44 555
13.5 547
13.56 519
13.62 583
13.68 538
13.74 534
13.8 540
13.86 569
13.92 547
13.98 567
14.04 548
14.1 550
14.16 526
14.22 593
14.28 614
14.34 571
14.4 590
14.46 582
14.52 604
14.58 576
14.64 527
14.7 618
14.76 573
14.82 612
14.88 588
14.94 574
15 564
15.06 559
15.12 595
15.18 624
15.24 584
15.3 622
15.36 591
15.42 600
15.48 640
15.54 573
15.6 581
15.66 613
15.72 658
15.78 630
15.84 651
15.9 635
15.96 642
16.02 618
16.08 591
16.14 621
16.2 644
16.26 683
16.32 622
16.38 683
16.44 691
16.5 681
16.56 710
16.62 723
16.68 672
16.74 754
16.8 802
16.86 904
16.92 1377
16.98 1407
17.04 987
17.1 773
17.16 744
17.22 758
17.28 749
17.34 709
17.4 733
17.46 775
17.52 775
17.58 761
17.64 733
17.7 744
17.76 748
17.82 762
17.88 707
17.94 756
18 789
18.06 783
18.12 821
18.18 815
18.24 796
18.3 772
18.36 769
18.42 851
18.48 836
18.54 812
18.6 788
18.66 877
18.72 856
18.78 841
18.84 841
18.9 806
18.96 851
19.02 858
19.08 952
19.14 842
19.2 909
19.26 941
19.32 905
19.38 892
19.44 940
19.5 893
19.56 976
19.62 943
19.68 929
19.74 945
19.8 953
19.86 994
19.92 946
19.98 964
20 964

File: 37-31.ASC
3 2668
3.06 2224
3.12 2006
3.18 1890
3.24 1824
3.3 1681
3.36 1724
3.42 1632
3.48 1615
3.54 1571
3.6 1510
3.66 1442
3.72 1400
3.78 1377
3.84 1432
3.9 1372
3.96 1341
4.02 1313
4.08 1288
4.14 1257
4.2 1229
4.26 1202
4.32 1164
4.38 1173
4.44 1145
4.5 1117
4.56 1060
4.62 1087
4.68 1044
4.74 1062
4.8 1072
4.86 1083
4.92 1035
4.98 1030
5.04 966
5.1 1055
5.16 1028
5.22 1145
5.28 1130
5.34 1172
5.4 1386
5.46 1030
5.52 1036
5.58 982
5.64 993
5.7 989
5.76 1034
5.82 852
5.88 836
5.94 772
6 759
6.06 792
6.12 735
6.18 707
6.24 739
6.3 720
6.36 745
6.42 656
6.48 702
6.54 736
6.6 697
6.66 696
6.72 694
6.78 625
6.84 677
6.9 698
6.96 663
7.02 665
7.08 681
7.14 659
7.2 587
7.26 638
7.32 629
7.38 699
7.44 661
7.5 650
7.56 633
7.62 646
7.68 649
7.74 606
7.8 626
7.86 640
7.92 591
7.98 615
8.04 629
8.1 619
8.16 645
8.22 588
8.28 601
8.34 582
8.4 641
8.46 616
8.52 624
8.58 606
8.64 626
8.7 623
8.76 593
8.82 584
8.88 613
8.94 560
9 585
9.06 609
9.12 630
9.18 637
9.24 699
9.3 749
9.36 678
9.42 611
9.48 579
9.54 599
9.6 575
9.66 589
9.72 599
9.78 564
9.84 564
9.9 593
9.96 551
10.02 582
10.08 568
10.14 581
10.2 557
10.26 566
10.32 528
10.38 596
10.44 558
10.5 606
10.56 584
10.62 580
10.68 615
10.74 643
10.8 626
10.86 641
10.92 606
10.98 568
11.04 568
11.1 541
11.16 588
11.22 518
11.28 547
11.34 517
11.4 572
11.46 563
11.52 568
11.58 537
11.64 564
11.7 570
11.76 586
11.82 534
11.88 579
11.94 539
12 558
12.06 583
12.12 551
12.18 575
12.24 574
12.3 571
12.36 593
12.42 575
12.48 570
12.54 551
12.6 559
12.66 562
12.72 561
12.78 603
12.84 580
12.9 612
12.96 597
13.02 542
13.08 564
13.14 564
13.2 605
13.26 601
13.32 628
13.38 608
13.44 570
13.5 602
13.56 592
13.62 639
13.68 588
13.74 615
13.8 590
13.86 621
13.92 608
13.98 596
14.04 602
14.1 606
14.16 618
14.22 648
14.28 613
14.34 631
14.4 653
14.46 670
14.52 665
14.58 644
14.64 669
14.7 687
14.76 672
14.82 638
14.88 667
14.94 693
15 674
15.06 655
15.12 668
15.18 708
15.24 695
15.3 695
15.36 686
15.42 672
15.48 717
15.54 736
15.6 712
15.66 710
15.72 699
15.78 706
15.84 737
15.9 764
15.96 735
16.02 744
16.08 712
16.14 772
16.2 741
16.26 804
16.32 818
16.38 792
16.44 776
16.5 816
16.56 794
16.62 808
16.68 791
16.74 876
16.8 886
16.86 904
16.92 1014
16.98 1292
17.04 930
17.1 817
17.16 868
17.22 826
17.28 894
17.34 899
17.4 933
17.46 876
17.52 925
17.58 926
17.64 902
17.7 870
17.76 955
17.82 974
17.88 959
17.94 967
18 971
18.06 979
18.12 982
18.18 1007
18.24 1000
18.3 982
18.36 1019
18.42 998
18.48 1045
18.54 1084
18.6 1100
18.66 1099
18.72 1120
18.78 1124
18.84 1056
18.9 1102
18.96 1151
19.02 1122
19.08 1149
19.14 1143
19.2 1126
19.26 1128
19.32 1137
19.38 1150
19.44 1200
19.5 1200
19.56 1218
19.62 1188
19.68 1192
19.74 1193
19.8 1210
19.86 1227
19.92 1187
19.98 1233
20 1196

File: 37-34.ASC
3 2501
3.06 2088
3.12 1840
3.18 1735
3.24 1694
3.3 1618
3.36 1557
3.42 1453
3.48 1461
3.54 1420
3.6 1377
3.66 1292
3.72 1342
3.78 1292
3.84 1238
3.9 1186
3.96 1233
4.02 1129
4.08 1116
4.14 1042
4.2 1063
4.26 1015
4.32 1021
4.38 982
4.44 1048
4.5 950
4.56 898
4.62 947
4.68 909
4.74 927
4.8 894
4.86 887
4.92 868
4.98 812
5.04 885
5.1 872
5.16 840
5.22 847
5.28 811
5.34 800
5.4 770
5.46 803
5.52 789
5.58 744
5.64 716
5.7 737
5.76 769
5.82 736
5.88 709
5.94 754
6 668
6.06 711
6.12 666
6.18 714
6.24 680
6.3 685
6.36 658
6.42 654
6.48 620
6.54 685
6.6 689
6.66 653
6.72 652
6.78 657
6.84 648
6.9 635
6.96 594
7.02 640
7.08 612
7.14 635
7.2 592
7.26 631
7.32 611
7.38 586
7.44 626
7.5 584
7.56 642
7.62 630
7.68 608
7.74 582
7.8 669
7.86 627
7.92 613
7.98 611
8.04 581
8.1 631
8.16 586
8.22 587
8.28 636
8.34 594
8.4 581
8.46 597
8.52 565
8.58 572
8.64 578
8.7 565
8.76 586
8.82 552
8.88 564
8.94 553
9 558
9.06 513
9.12 567
9.18 533
9.24 565
9.3 550
9.36 567
9.42 578
9.48 572
9.54 566
9.6 511
9.66 550
9.72 559
9.78 591
9.84 575
9.9 552
9.96 535
10.02 530
10.08 524
10.14 532
10.2 521
10.26 545
10.32 536
10.38 524
10.44 562
10.5 514
10.56 525
10.62 539
10.68 534
10.74 526
10.8 565
10.86 563
10.92 518
10.98 548
11.04 581
11.1 549
11.16 544
11.22 540
11.28 535
11.34 561
11.4 497
11.46 516
11.52 506
11.58 567
11.64 504
11.7 541
11.76 516
11.82 517
11.88 550
11.94 570
12 515
12.06 546
12.12 575
12.18 590
12.24 564
12.3 518
12.36 535
12.42 571
12.48 565
12.54 532
12.6 537
12.66 544
12.72 523
12.78 541
12.84 563
12.9 543
12.96 556
13.02 572
13.08 574
13.14 573
13.2 545
13.26 575
13.32 546
13.38 572
13.44 560
13.5 586
13.56 612
13.62 573
13.68 549
13.74 570
13.8 609
13.86 528
13.92 558
13.98 586
14.04 623
14.1 588
14.16 574
14.22 630
14.28 583
14.34 592
14.4 634
14.46 617
14.52 618
14.58 571
14.64 565
14.7 602
14.76 621
14.82 650
14.88 657
14.94 691
15 645
15.06 655
15.12 696
15.18 671
15.24 659
15.3 673
15.36 646
15.42 687
15.48 677
15.54 669
15.6 666
15.66 693
15.72 655
15.78 702
15.84 756
15.9 659
15.96 699
16.02 703
16.08 677
16.14 731
16.2 651
16.26 732
16.32 750
16.38 706
16.44 666
16.5 720
16.56 751
16.62 755
16.68 709
16.74 748
16.8 761
16.86 941
16.92 946
16.98 1253
17.04 1386
17.1 992
17.16 792
17.22 840
17.28 858
17.34 844
17.4 815
17.46 838
17.52 841
17.58 842
17.64 903
17.7 860
17.76 848
17.82 908
17.88 823
17.94 915
18 893
18.06 898
18.12 878
18.18 859
18.24 942
18.3 855
18.36 931
18.42 936
18.48 977
18.54 912
18.6 951
18.66 946
18.72 968
18.78 976
18.84 981
18.9 959
18.96 1002
19.02 987
19.08 1067
19.14 1022
19.2 1033
19.26 1031
19.32 1058
19.38 1091
19.44 998
19.5 1049
19.56 1035
19.62 1114
19.68 1057
19.74 1119
19.8 1063
19.86 1145
19.92 1163
19.98 1066
20 1101

File: 37-35.ASC
3 2403
3.06 2044
3.12 1844
3.18 1711
3.24 1701
3.3 1621
3.36 1579
3.42 1591
3.48 1518
3.54 1423
3.6 1391
3.66 1443
3.72 1323
3.78 1382
3.84 1261
3.9 1315
3.96 1264
4.02 1236
4.08 1184
4.14 1182
4.2 1206
4.26 1126
4.32 1122
4.38 1081
4.44 1076
4.5 1037
4.56 1094
4.62 1085
4.68 1037
4.74 1020
4.8 970
4.86 920
4.92 1003
4.98 929
5.04 986
5.1 952
5.16 877
5.22 909
5.28 865
5.34 894
5.4 967
5.46 974
5.52 971
5.58 883
5.64 872
5.7 776
5.76 827
5.82 823
5.88 808
5.94 763
6 713
6.06 715
6.12 740
6.18 702
6.24 727
6.3 732
6.36 693
6.42 694
6.48 665
6.54 676
6.6 653
6.66 650
6.72 665
6.78 637
6.84 665
6.9 613
6.96 638
7.02 626
7.08 622
7.14 607
7.2 624
7.26 598
7.32 671
7.38 636
7.44 621
7.5 592
7.56 536
7.62 637
7.68 578
7.74 604
7.8 595
7.86 548
7.92 580
7.98 579
8.04 530
8.1 542
8.16 588
8.22 588
8.28 557
8.34 555
8.4 579
8.46 541
8.52 552
8.58 566
8.64 573
8.7 590
8.76 551
8.82 579
8.88 555
8.94 561
9 550
9.06 574
9.12 538
9.18 560
9.24 572
9.3 566
9.36 588
9.42 596
9.48 591
9.54 519
9.6 555
9.66 517
9.72 525
9.78 570
9.84 491
9.9 543
9.96 529
10.02 539
10.08 534
10.14 524
10.2 543
10.26 550
10.32 507
10.38 533
10.44 513
10.5 490
10.56 517
10.62 530
10.68 509
10.74 512
10.8 545
10.86 496
10.92 497
10.98 479
11.04 517
11.1 500
11.16 510
11.22 481
11.28 475
11.34 497
11.4 484
11.46 552
11.52 472
11.58 490
11.64 488
11.7 484
11.76 460
11.82 470
11.88 479
11.94 491
12 527
12.06 476
12.12 541
12.18 511
12.24 484
12.3 483
12.36 492
12.42 484
12.48 474
12.54 509
12.6 516
12.66 510
12.72 477
12.78 540
12.84 509
12.9 496
12.96 503
13.02 539
13.08 531
13.14 517
13.2 556
13.26 503
13.32 509
13.38 514
13.44 517
13.5 500
13.56 536
13.62 493
13.68 506
13.74 538
13.8 544
13.86 525
13.92 539
13.98 537
14.04 534
14.1 563
14.16 519
14.22 572
14.28 566
14.34 598
14.4 566
14.46 565
14.52 538
14.58 587
14.64 579
14.7 614
14.76 583
14.82 585
14.88 593
14.94 537
15 578
15.06 597
15.12 599
15.18 597
15.24 604
15.3 654
15.36 602
15.42 652
15.48 612
15.54 620
15.6 593
15.66 672
15.72 650
15.78 624
15.84 634
15.9 644
15.96 680
16.02 682
16.08 658
16.14 652
16.2 633
16.26 646
16.32 736
16.38 675
16.44 696
16.5 722
16.56 694
16.62 686
16.68 700
16.74 700
16.8 723
16.86 787
16.92 794
16.98 981
17.04 1292
17.1 1362
17.16 966
17.22 766
17.28 720
17.34 790
17.4 739
17.46 710
17.52 752
17.58 798
17.64 759
17.7 848
17.76 803
17.82 769
17.88 807
17.94 821
18 828
18.06 832
18.12 825
18.18 865
18.24 910
18.3 787
18.36 803
18.42 874
18.48 838
18.54 901
18.6 890
18.66 980
18.72 990
18.78 938
18.84 931
18.9 894
18.96 939
19.02 896
19.08 949
19.14 949
19.2 951
19.26 995
19.32 945
19.38 975
19.44 984
19.5 957
19.56 1041
19.62 1048
19.68 1004
19.74 1065
19.8 1043
19.86 1053
19.92 1047
19.98 1036
20 1111

File: 37-37.ASC
3 2489
3.06 2154
3.12 1858
3.18 1691
3.24 1671
3.3 1641
3.36 1582
3.42 1555
3.48 1541
3.54 1446
3.6 1483
3.66 1432
3.72 1406
3.78 1378
3.84 1434
3.9 1399
3.96 1459
4.02 1500
4.08 1529
4.14 1448
4.2 1385
4.26 1303
4.32 1275
4.38 1254
4.44 1238
4.5 1232
4.56 1214
4.62 1218
4.68 1200
4.74 1216
4.8 1245
4.86 1239
4.92 1275
4.98 1317
5.04 1407
5.1 1512
5.16 1737
5.22 1875
5.28 2209
5.34 2657
5.4 3442
5.46 3899
5.52 2638
5.58 2338
5.64 2455
5.7 2757
5.76 3336
5.82 3224
5.88 1953
5.94 1211
6 957
6.06 931
6.12 842
6.18 862
6.24 832
6.3 850
6.36 778
6.42 831
6.48 804
6.54 787
6.6 869
6.66 813
6.72 904
6.78 890
6.84 884
6.9 715
6.96 724
7.02 736
7.08 670
7.14 641
7.2 651
7.26 692
7.32 651
7.38 663
7.44 633
7.5 676
7.56 603
7.62 649
7.68 644
7.74 647
7.8 639
7.86 665
7.92 692
7.98 697
8.04 670
8.1 677
8.16 598
8.22 672
8.28 650
8.34 651
8.4 648
8.46 626
8.52 687
8.58 636
8.64 617
8.7 634
8.76 624
8.82 674
8.88 685
8.94 684
9 677
9.06 766
9.12 795
9.18 855
9.24 1012
9.3 1250
9.36 1755
9.42 1179
9.48 788
9.54 669
9.6 666
9.66 631
9.72 657
9.78 619
9.84 650
9.9 645
9.96 657
10.02 675
10.08 710
10.14 756
10.2 838
10.26 749
10.32 689
10.38 624
10.44 622
10.5 621
10.56 625
10.62 725
10.68 789
10.74 916
10.8 1024
10.86 985
10.92 937
10.98 1056
11.04 907
11.1 681
11.16 659
11.22 650
11.28 656
11.34 654
11.4 669
11.46 686
11.52 745
11.58 697
11.64 647
11.7 638
11.76 576
11.82 625
11.88 645
11.94 586
12 623
12.06 659
12.12 597
12.18 699
12.24 615
12.3 666
12.36 650
12.42 665
12.48 570
12.54 617
12.6 594
12.66 626
12.72 610
12.78 651
12.84 605
12.9 641
12.96 608
13.02 573
13.08 630
13.14 663
13.2 615
13.26 586
13.32 656
13.38 671
13.44 648
13.5 665
13.56 661
13.62 642
13.68 654
13.74 659
13.8 618
13.86 623
13.92 666
13.98 636
14.04 696
14.1 683
14.16 683
14.22 654
14.28 748
14.34 704
14.4 736
14.46 748
14.52 691
14.58 714
14.64 724
14.7 717
14.76 722
14.82 790
14.88 701
14.94 675
15 740
15.06 773
15.12 705
15.18 776
15.24 795
15.3 725
15.36 756
15.42 733
15.48 724
15.54 715
15.6 750
15.66 757
15.72 783
15.78 733
15.84 776
15.9 769
15.96 801
16.02 841
16.08 772
16.14 821
16.2 837
16.26 868
16.32 840
16.38 864
16.44 848
16.5 878
16.56 836
16.62 838
16.68 890
16.74 908
16.8 913
16.86 910
16.92 967
16.98 1049
17.04 1152
17.1 968
17.16 956
17.22 922
17.28 939
17.34 935
17.4 932
17.46 1024
17.52 957
17.58 1005
17.64 956
17.7 986
17.76 988
17.82 1013
17.88 1026
17.94 1020
18 999
18.06 988
18.12 1015
18.18 1029
18.24 994
18.3 1051
18.36 1087
18.42 1106
18.48 1086
18.54 1086
18.6 1075
18.66 1168
18.72 1235
18.78 1191
18.84 1199
18.9 1197
18.96 1201
19.02 1224
19.08 1273
19.14 1243
19.2 1231
19.26 1181
19.32 1225
19.38 1288
19.44 1414
19.5 1417
19.56 1428
19.62 1354
19.68 1273
19.74 1334
19.8 1294
19.86 1299
19.92 1368
19.98 1276
20 1324

File: 37-38.ASC
3 2387
3.06 1902
3.12 1692
3.18 1644
3.24 1565
3.3 1523
3.36 1414
3.42 1439
3.48 1358
3.54 1375
3.6 1286
3.66 1203
3.72 1223
3.78 1196
3.84 1127
3.9 1153
3.96 1113
4.02 1107
4.08 1135
4.14 1073
4.2 1050
4.26 1013
4.32 1012
4.38 1010
4.44 925
4.5 919
4.56 927
4.62 902
4.68 859
4.74 881
4.8 864
4.86 850
4.92 881
4.98 872
5.04 899
5.1 888
5.16 883
5.22 966
5.28 1001
5.34 1149
5.4 1235
5.46 1438
5.52 1579
5.58 1805
5.64 1326
5.7 1263
5.76 1290
5.82 1319
5.88 1345
5.94 1271
6 937
6.06 756
6.12 736
6.18 679
6.24 677
6.3 640
6.36 647
6.42 593
6.48 591
6.54 623
6.6 666
6.66 612
6.72 610
6.78 622
6.84 664
6.9 643
6.96 628
7.02 573
7.08 571
7.14 572
7.2 601
7.26 543
7.32 594
7.38 541
7.44 531
7.5 557
7.56 573
7.62 563
7.68 558
7.74 525
7.8 536
7.86 525
7.92 549
7.98 513
8.04 517
8.1 529
8.16 527
8.22 510
8.28 536
8.34 557
8.4 530
8.46 538
8.52 530
8.58 549
8.64 538
8.7 506
8.76 557
8.82 535
8.88 533
8.94 544
9 519
9.06 540
9.12 572
9.18 556
9.24 688
9.3 659
9.36 783
9.42 765
9.48 920
9.54 756
9.6 593
9.66 565
9.72 535
9.78 501
9.84 494
9.9 530
9.96 540
10.02 523
10.08 555
10.14 514
10.2 495
10.26 529
10.32 559
10.38 566
10.44 517
10.5 514
10.56 501
10.62 555
10.68 530
10.74 561
10.8 583
10.86 617
10.92 714
10.98 632
11.04 658
11.1 648
11.16 587
11.22 509
11.28 498
11.34 509
11.4 519
11.46 512
11.52 532
11.58 543
11.64 537
11.7 558
11.76 498
11.82 472
11.88 518
11.94 506
12 537
12.06 539
12.12 507
12.18 518
12.24 516
12.3 516
12.36 492
12.42 539
12.48 530
12.54 538
12.6 536
12.66 547
12.72 513
12.78 499
12.84 508
12.9 516
12.96 500
13.02 511
13.08 516
13.14 537
13.2 565
13.26 538
13.32 548
13.38 598
13.44 637
13.5 614
13.56 541
13.62 555
13.68 544
13.74 570
13.8 547
13.86 559
13.92 535
13.98 576
14.04 602
14.1 565
14.16 547
14.22 525
14.28 552
14.34 565
14.4 632
14.46 603
14.52 597
14.58 561
14.64 579
14.7 612
14.76 616
14.82 647
14.88 609
14.94 644
15 595
15.06 627
15.12 599
15.18 641
15.24 640
15.3 651
15.36 660
15.42 611
15.48 617
15.54 679
15.6 648
15.66 608
15.72 672
15.78 684
15.84 655
15.9 720
15.96 653
16.02 626
16.08 678
16.14 715
16.2 677
16.26 742
16.32 698
16.38 724
16.44 764
16.5 744
16.56 769
16.62 765
16.68 773
16.74 769
16.8 822
16.86 815
16.92 938
16.98 1192
17.04 1479
17.1 2079
17.16 3258
17.22 1845
17.28 902
17.34 897
17.4 885
17.46 855
17.52 860
17.58 969
17.64 867
17.7 932
17.76 873
17.82 905
17.88 938
17.94 925
18 921
18.06 969
18.12 968
18.18 961
18.24 997
18.3 948
18.36 1021
18.42 963
18.48 981
18.54 999
18.6 1063
18.66 1036
18.72 1023
18.78 1034
18.84 1072
18.9 1096
18.96 1094
19.02 1120
19.08 1066
19.14 1118
19.2 1105
19.26 1120
19.32 1188
19.38 1090
19.44 1188
19.5 1221
19.56 1245
19.62 1272
19.68 1210
19.74 1214
19.8 1248
19.86 1135
19.92 1209
19.98 1234
20 1246

File: 38-1.ASC
3 3231
3.06 2774
3.12 2461
3.18 2310
3.24 2162
3.3 2143
3.36 1944
3.42 1879
3.48 1859
3.54 1811
3.6 1762
3.66 1731
3.72 1631
3.78 1546
3.84 1446
3.9 1423
3.96 1410
4.02 1358
4.08 1387
4.14 1352
4.2 1292
4.26 1251
4.32 1270
4.38 1207
4.44 1204
4.5 1166
4.56 1208
4.62 1219
4.68 1280
4.74 1230
4.8 1280
4.86 1302
4.92 1408
4.98 1401
5.04 1525
5.1 1806
5.16 2000
5.22 2423
5.28 2958
5.34 3839
5.4 5641
5.46 6255
5.52 3055
5.58 2207
5.64 1701
5.7 1505
5.76 1393
5.82 1284
5.88 1082
5.94 1061
6 941
6.06 873
6.12 954
6.18 848
6.24 827
6.3 793
6.36 792
6.42 761
6.48 775
6.54 782
6.6 756
6.66 807
6.72 752
6.78 803
6.84 724
6.9 697
6.96 712
7.02 688
7.08 706
7.14 649
7.2 687
7.26 650
7.32 640
7.38 678
7.44 696
7.5 635
7.56 681
7.62 706
7.68 671
7.74 657
7.8 641
7.86 689
7.92 692
7.98 694
8.04 695
8.1 683
8.16 653
8.22 657
8.28 644
8.34 625
8.4 651
8.46 668
8.52 612
8.58 654
8.64 651
8.7 671
8.76 676
8.82 676
8.88 777
8.94 739
9 757
9.06 822
9.12 905
9.18 1019
9.24 1315
9.3 1782
9.36 2410
9.42 1379
9.48 929
9.54 820
9.6 757
9.66 697
9.72 741
9.78 697
9.84 714
9.9 698
9.96 683
10.02 729
10.08 704
10.14 695
10.2 691
10.26 711
10.32 673
10.38 739
10.44 713
10.5 742
10.56 816
10.62 850
10.68 1033
10.74 1335
10.8 1669
10.86 1231
10.92 982
10.98 864
11.04 812
11.1 766
11.16 772
11.22 710
11.28 679
11.34 690
11.4 679
11.46 716
11.52 674
11.58 696
11.64 674
11.7 689
11.76 647
11.82 698
11.88 686
11.94 701
12 662
12.06 707
12.12 756
12.18 731
12.24 821
12.3 770
12.36 805
12.42 734
12.48 722
12.54 779
12.6 673
12.66 701
12.72 710
12.78 698
12.84 718
12.9 722
12.96 799
13.02 744
13.08 741
13.14 708
13.2 769
13.26 752
13.32 707
13.38 692
13.44 757
13.5 766
13.56 808
13.62 755
13.68 752
13.74 741
13.8 765
13.86 735
13.92 785
13.98 771
14.04 745
14.1 788
14.16 812
14.22 834
14.28 849
14.34 862
14.4 833
14.46 815
14.52 820
14.58 820
14.64 836
14.7 810
14.76 816
14.82 751
14.88 822
14.94 880
15 816
15.06 845
15.12 856
15.18 820
15.24 806
15.3 797
15.36 838
15.42 806
15.48 865
15.54 859
15.6 845
15.66 877
15.72 870
15.78 903
15.84 883
15.9 900
15.96 884
16.02 938
16.08 966
16.14 967
16.2 926
16.26 906
16.32 917
16.38 969
16.44 1020
16.5 990
16.56 971
16.62 961
16.68 1010
16.74 1008
16.8 982
16.86 1032
16.92 1099
16.98 1186
17.04 1145
17.1 1074
17.16 1113
17.22 1098
17.28 1109
17.34 1127
17.4 1087
17.46 1150
17.52 1137
17.58 1110
17.64 1152
17.7 1111
17.76 1151
17.82 1179
17.88 1125
17.94 1182
18 1114
18.06 1202
18.12 1225
18.18 1209
18.24 1136
18.3 1204
18.36 1210
18.42 1219
18.48 1258
18.54 1242
18.6 1282
18.66 1387
18.72 1326
18.78 1363
18.84 1275
18.9 1343
18.96 1315
19.02 1351
19.08 1332
19.14 1266
19.2 1342
19.26 1416
19.32 1470
19.38 1522
19.44 1696
19.5 1646
19.56 1650
19.62 1565
19.68 1482
19.74 1498
19.8 1416
19.86 1481
19.92 1451
19.98 1492
20 1480

File: 38-2.ASC
3 3404
3.06 3022
3.12 2723
3.18 2470
3.24 2435
3.3 2329
3.36 2198
3.42 2147
3.48 2041
3.54 2002
3.6 1891
3.66 1762
3.72 1660
3.78 1675
3.84 1566
3.9 1523
3.96 1489
4.02 1486
4.08 1387
4.14 1389
4.2 1397
4.26 1233
4.32 1236
4.38 1238
4.44 1184
4.5 1182
4.56 1121
4.62 1046
4.68 1048
4.74 1011
4.8 1045
4.86 1059
4.92 1016
4.98 1000
5.04 977
5.1 921
5.16 901
5.22 931
5.28 837
5.34 895
5.4 845
5.46 821
5.52 835
5.58 790
5.64 837
5.7 783
5.76 814
5.82 796
5.88 760
5.94 748
6 715
6.06 739
6.12 785
6.18 718
6.24 741
6.3 712
6.36 724
6.42 719
6.48 698
6.54 737
6.6 675
6.66 705
6.72 741
6.78 669
6.84 710
6.9 666
6.96 649
7.02 684
7.08 635
7.14 627
7.2 628
7.26 624
7.32 617
7.38 619
7.44 585
7.5 652
7.56 643
7.62 593
7.68 610
7.74 592
7.8 608
7.86 641
7.92 582
7.98 609
8.04 587
8.1 608
8.16 577
8.22 570
8.28 602
8.34 540
8.4 608
8.46 561
8.52 606
8.58 581
8.64 608
8.7 498
8.76 579
8.82 596
8.88 540
8.94 526
9 529
9.06 535
9.12 541
9.18 561
9.24 493
9.3 552
9.36 487
9.42 583
9.48 508
9.54 537
9.6 537
9.66 541
9.72 512
9.78 561
9.84 522
9.9 494
9.96 517
10.02 525
10.08 527
10.14 513
10.2 510
10.26 518
10.32 502
10.38 509
10.44 515
10.5 518
10.56 520
10.62 519
10.68 528
10.74 537
10.8 475
10.86 513
10.92 507
10.98 503
11.04 492
11.1 522
11.16 487
11.22 498
11.28 500
11.34 517
11.4 507
11.46 461
11.52 459
11.58 523
11.64 532
11.7 520
11.76 567
11.82 505
11.88 517
11.94 495
12 488
12.06 507
12.12 559
12.18 527
12.24 534
12.3 505
12.36 531
12.42 528
12.48 518
12.54 489
12.6 518
12.66 493
12.72 508
12.78 527
12.84 522
12.9 497
12.96 506
13.02 527
13.08 518
13.14 541
13.2 539
13.26 546
13.32 546
13.38 521
13.44 508
13.5 527
13.56 553
13.62 526
13.68 542
13.74 516
13.8 512
13.86 527
13.92 535
13.98 537
14.04 553
14.1 553
14.16 570
14.22 568
14.28 577
14.34 533
14.4 544
14.46 570
14.52 575
14.58 582
14.64 563
14.7 588
14.76 568
14.82 598
14.88 591
14.94 571
15 586
15.06 566
15.12 570
15.18 618
15.24 599
15.3 638
15.36 595
15.42 554
15.48 627
15.54 575
15.6 607
15.66 639
15.72 622
15.78 673
15.84 619
15.9 673
15.96 649
16.02 628
16.08 629
16.14 657
16.2 698
16.26 664
16.32 712
16.38 650
16.44 661
16.5 663
16.56 746
16.62 743
16.68 773
16.74 911
16.8 1062
16.86 1490
16.92 2203
16.98 2402
17.04 1355
17.1 888
17.16 792
17.22 763
17.28 751
17.34 716
17.4 728
17.46 751
17.52 811
17.58 778
17.64 792
17.7 801
17.76 793
17.82 815
17.88 846
17.94 817
18 859
18.06 806
18.12 862
18.18 865
18.24 847
18.3 853
18.36 852
18.42 880
18.48 887
18.54 906
18.6 906
18.66 856
18.72 872
18.78 919
18.84 883
18.9 909
18.96 893
19.02 956
19.08 857
19.14 922
19.2 977
19.26 996
19.32 971
19.38 965
19.44 987
19.5 994
19.56 998
19.62 1005
19.68 1017
19.74 1040
19.8 996
19.86 1029
19.92 999
19.98 1086
20 1073

File: 38-3.ASC
3 2595
3.06 2058
3.12 1908
3.18 1813
3.24 1646
3.3 1555
3.36 1515
3.42 1479
3.48 1437
3.54 1365
3.6 1320
3.66 1285
3.72 1205
3.78 1133
3.84 1147
3.9 1171
3.96 1054
4.02 1033
4.08 1045
4.14 973
4.2 954
4.26 925
4.32 926
4.38 908
4.44 851
4.5 859
4.56 876
4.62 832
4.68 795
4.74 833
4.8 823
4.86 790
4.92 745
4.98 788
5.04 697
5.1 699
5.16 711
5.22 693
5.28 690
5.34 703
5.4 724
5.46 684
5.52 659
5.58 694
5.64 677
5.7 658
5.76 658
5.82 650
5.88 705
5.94 651
6 660
6.06 609
6.12 651
6.18 674
6.24 646
6.3 641
6.36 629
6.42 640
6.48 695
6.54 602
6.6 648
6.66 635
6.72 594
6.78 640
6.84 619
6.9 652
6.96 624
7.02 657
7.08 639
7.14 609
7.2 627
7.26 621
7.32 645
7.38 607
7.44 576
7.5 622
7.56 599
7.62 635
7.68 603
7.74 605
7.8 640
7.86 630
7.92 602
7.98 616
8.04 619
8.1 622
8.16 604
8.22 593
8.28 571
8.34 642
8.4 610
8.46 641
8.52 603
8.58 625
8.64 602
8.7 646
8.76 669
8.82 646
8.88 738
8.94 766
9 821
9.06 724
9.12 638
9.18 592
9.24 614
9.3 599
9.36 618
9.42 548
9.48 586
9.54 561
9.6 620
9.66 607
9.72 598
9.78 611
9.84 628
9.9 630
9.96 719
10.02 645
10.08 587
10.14 563
10.2 596
10.26 563
10.32 565
10.38 590
10.44 569
10.5 561
10.56 545
10.62 553
10.68 541
10.74 560
10.8 542
10.86 573
10.92 545
10.98 587
11.04 551
11.1 566
11.16 573
11.22 548
11.28 551
11.34 577
11.4 604
11.46 546
11.52 561
11.58 598
11.64 557
11.7 558
11.76 576
11.82 593
11.88 543
11.94 566
12 574
12.06 573
12.12 571
12.18 593
12.24 561
12.3 560
12.36 595
12.42 570
12.48 582
12.54 581
12.6 603
12.66 607
12.72 591
12.78 622
12.84 561
12.9 600
12.96 595
13.02 584
13.08 612
13.14 604
13.2 605
13.26 636
13.32 627
13.38 666
13.44 692
13.5 652
13.56 612
13.62 614
13.68 633
13.74 627
13.8 623
13.86 591
13.92 618
13.98 654
14.04 645
14.1 641
14.16 618
14.22 652
14.28 664
14.34 619
14.4 658
14.46 631
14.52 699
14.58 692
14.64 676
14.7 729
14.76 643
14.82 702
14.88 674
14.94 734
15 670
15.06 701
15.12 665
15.18 664
15.24 737
15.3 749
15.36 731
15.42 708
15.48 697
15.54 735
15.6 722
15.66 723
15.72 753
15.78 764
15.84 731
15.9 781
15.96 784
16.02 753
16.08 764
16.14 797
16.2 759
16.26 794
16.32 774
16.38 800
16.44 853
16.5 898
16.56 819
16.62 840
16.68 805
16.74 914
16.8 950
16.86 926
16.92 1025
16.98 1123
17.04 1103
17.1 942
17.16 921
17.22 948
17.28 952
17.34 965
17.4 936
17.46 982
17.52 1030
17.58 995
17.64 940
17.7 1007
17.76 946
17.82 982
17.88 1061
17.94 1051
18 1028
18.06 1042
18.12 1045
18.18 1020
18.24 1034
18.3 1098
18.36 1103
18.42 1151
18.48 1089
18.54 1090
18.6 1180
18.66 1160
18.72 1135
18.78 1139
18.84 1136
18.9 1196
18.96 1136
19.02 1210
19.08 1185
19.14 1240
19.2 1181
19.26 1299
19.32 1235
19.38 1308
19.44 1172
19.5 1310
19.56 1270
19.62 1268
19.68 1278
19.74 1326
19.8 1314
19.86 1347
19.92 1390
19.98 1318
20 1366