Folder: CPC-code/xrd-UiO-67/pxrddata (part 20)

File: 39-17.ASC
3 2837
3.06 2344
3.12 2126
3.18 1943
3.24 1864
3.3 1797
3.36 1711
3.42 1803
3.48 1634
3.54 1631
3.6 1533
3.66 1579
3.72 1481
3.78 1428
3.84 1327
3.9 1318
3.96 1321
4.02 1264
4.08 1180
4.14 1202
4.2 1147
4.26 1088
4.32 1094
4.38 1055
4.44 1076
4.5 1043
4.56 1006
4.62 1022
4.68 938
4.74 890
4.8 955
4.86 852
4.92 849
4.98 961
5.04 880
5.1 890
5.16 885
5.22 835
5.28 802
5.34 841
5.4 815
5.46 798
5.52 730
5.58 762
5.64 772
5.7 796
5.76 742
5.82 777
5.88 762
5.94 739
6 729
6.06 703
6.12 707
6.18 677
6.24 711
6.3 694
6.36 690
6.42 687
6.48 731
6.54 698
6.6 729
6.66 681
6.72 674
6.78 732
6.84 703
6.9 680
6.96 666
7.02 673
7.08 658
7.14 672
7.2 669
7.26 719
7.32 633
7.38 640
7.44 703
7.5 691
7.56 708
7.62 679
7.68 642
7.74 631
7.8 697
7.86 666
7.92 676
7.98 686
8.04 630
8.1 645
8.16 661
8.22 681
8.28 653
8.34 704
8.4 680
8.46 653
8.52 735
8.58 691
8.64 757
8.7 722
8.76 795
8.82 768
8.88 855
8.94 939
9 932
9.06 882
9.12 872
9.18 816
9.24 837
9.3 760
9.36 787
9.42 738
9.48 721
9.54 700
9.6 772
9.66 764
9.72 733
9.78 832
9.84 842
9.9 888
9.96 878
10.02 866
10.08 796
10.14 735
10.2 719
10.26 663
10.32 686
10.38 659
10.44 634
10.5 596
10.56 626
10.62 607
10.68 672
10.74 621
10.8 585
10.86 578
10.92 635
10.98 585
11.04 578
11.1 571
11.16 549
11.22 546
11.28 557
11.34 563
11.4 571
11.46 546
11.52 579
11.58 568
11.64 577
11.7 550
11.76 533
11.82 537
11.88 570
11.94 535
12 560
12.06 541
12.12 528
12.18 549
12.24 539
12.3 588
12.36 549
12.42 569
12.48 626
12.54 640
12.6 689
12.66 726
12.72 667
12.78 615
12.84 603
12.9 586
12.96 628
13.02 587
13.08 561
13.14 564
13.2 581
13.26 575
13.32 582
13.38 604
13.44 586
13.5 600
13.56 572
13.62 570
13.68 562
13.74 588
13.8 531
13.86 581
13.92 579
13.98 585
14.04 620
14.1 563
14.16 604
14.22 564
14.28 605
14.34 621
14.4 635
14.46 569
14.52 638
14.58 626
14.64 631
14.7 588
14.76 595
14.82 622
14.88 604
14.94 592
15 639
15.06 586
15.12 570
15.18 658
15.24 660
15.3 587
15.36 645
15.42 668
15.48 648
15.54 628
15.6 658
15.66 627
15.72 619
15.78 680
15.84 632
15.9 668
15.96 688
16.02 658
16.08 711
16.14 713
16.2 705
16.26 683
16.32 663
16.38 700
16.44 726
16.5 707
16.56 772
16.62 779
16.68 753
16.74 807
16.8 852
16.86 958
16.92 1174
16.98 1338
17.04 1062
17.1 898
17.16 819
17.22 774
17.28 786
17.34 728
17.4 810
17.46 792
17.52 825
17.58 812
17.64 799
17.7 848
17.76 848
17.82 924
17.88 874
17.94 911
18 850
18.06 863
18.12 876
18.18 880
18.24 874
18.3 899
18.36 954
18.42 920
18.48 957
18.54 940
18.6 970
18.66 877
18.72 1001
18.78 975
18.84 946
18.9 946
18.96 955
19.02 1004
19.08 946
19.14 1000
19.2 984
19.26 1017
19.32 982
19.38 995
19.44 967
19.5 1041
19.56 1033
19.62 1057
19.68 1048
19.74 1112
19.8 1124
19.86 1120
19.92 1098
19.98 1126
20 1127

File: 39-18.ASC
3 2552
3.06 2091
3.12 1839
3.18 1771
3.24 1680
3.3 1622
3.36 1569
3.42 1499
3.48 1426
3.54 1431
3.6 1324
3.66 1251
3.72 1230
3.78 1260
3.84 1143
3.9 1136
3.96 1166
4.02 1061
4.08 982
4.14 987
4.2 988
4.26 891
4.32 874
4.38 939
4.44 885
4.5 817
4.56 827
4.62 830
4.68 810
4.74 767
4.8 764
4.86 772
4.92 741
4.98 722
5.04 705
5.1 672
5.16 721
5.22 706
5.28 711
5.34 704
5.4 688
5.46 691
5.52 667
5.58 640
5.64 674
5.7 695
5.76 616
5.82 678
5.88 674
5.94 651
6 652
6.06 650
6.12 648
6.18 591
6.24 605
6.3 635
6.36 602
6.42 625
6.48 594
6.54 639
6.6 587
6.66 611
6.72 611
6.78 643
6.84 607
6.9 566
6.96 597
7.02 594
7.08 579
7.14 589
7.2 584
7.26 611
7.32 566
7.38 616
7.44 624
7.5 585
7.56 508
7.62 619
7.68 648
7.74 622
7.8 592
7.86 585
7.92 606
7.98 565
8.04 608
8.1 632
8.16 611
8.22 608
8.28 615
8.34 677
8.4 694
8.46 688
8.52 721
8.58 821
8.64 876
8.7 986
8.76 1247
8.82 1520
8.88 2230
8.94 3439
9 3668
9.06 1483
9.12 946
9.18 805
9.24 867
9.3 845
9.36 767
9.42 719
9.48 724
9.54 731
9.6 762
9.66 830
9.72 907
9.78 1109
9.84 1343
9.9 2008
9.96 2318
10.02 988
10.08 684
10.14 620
10.2 594
10.26 573
10.32 604
10.38 618
10.44 577
10.5 517
10.56 603
10.62 590
10.68 567
10.74 573
10.8 604
10.86 574
10.92 598
10.98 570
11.04 580
11.1 549
11.16 497
11.22 535
11.28 540
11.34 531
11.4 514
11.46 499
11.52 537
11.58 544
11.64 556
11.7 566
11.76 547
11.82 549
11.88 512
11.94 503
12 536
12.06 527
12.12 515
12.18 557
12.24 533
12.3 524
12.36 564
12.42 577
12.48 609
12.54 654
12.6 777
12.66 829
12.72 788
12.78 669
12.84 627
12.9 603
12.96 570
13.02 597
13.08 604
13.14 627
13.2 707
13.26 760
13.32 809
13.38 1042
13.44 938
13.5 676
13.56 584
13.62 570
13.68 594
13.74 585
13.8 546
13.86 602
13.92 562
13.98 565
14.04 584
14.1 599
14.16 562
14.22 582
14.28 579
14.34 562
14.4 554
14.46 584
14.52 591
14.58 584
14.64 600
14.7 597
14.76 609
14.82 597
14.88 559
14.94 578
15 626
15.06 529
15.12 601
15.18 633
15.24 666
15.3 597
15.36 615
15.42 606
15.48 591
15.54 586
15.6 582
15.66 599
15.72 602
15.78 643
15.84 655
15.9 643
15.96 587
16.02 647
16.08 628
16.14 660
16.2 671
16.26 640
16.32 682
16.38 670
16.44 720
16.5 727
16.56 713
16.62 757
16.68 781
16.74 841
16.8 992
16.86 1293
16.92 1916
16.98 2839
17.04 1715
17.1 949
17.16 796
17.22 799
17.28 744
17.34 784
17.4 787
17.46 753
17.52 747
17.58 768
17.64 745
17.7 786
17.76 798
17.82 820
17.88 846
17.94 852
18 826
18.06 862
18.12 847
18.18 896
18.24 861
18.3 889
18.36 862
18.42 874
18.48 867
18.54 906
18.6 866
18.66 880
18.72 823
18.78 872
18.84 851
18.9 877
18.96 830
19.02 902
19.08 922
19.14 902
19.2 874
19.26 905
19.32 931
19.38 911
19.44 945
19.5 961
19.56 929
19.62 970
19.68 997
19.74 1002
19.8 1096
19.86 1233
19.92 1374
19.98 1278
20 1169

File: 39-21.ASC
3 3708
3.06 3221
3.12 2847
3.18 2670
3.24 2621
3.3 2534
3.36 2403
3.42 2298
3.48 2098
3.54 1997
3.6 1985
3.66 1986
3.72 1907
3.78 1858
3.84 1682
3.9 1686
3.96 1637
4.02 1567
4.08 1454
4.14 1480
4.2 1416
4.26 1351
4.32 1365
4.38 1315
4.44 1252
4.5 1262
4.56 1175
4.62 1213
4.68 1177
4.74 1136
4.8 1186
4.86 1132
4.92 1192
4.98 1166
5.04 1136
5.1 1231
5.16 1255
5.22 1381
5.28 1521
5.34 1766
5.4 2332
5.46 2099
5.52 1362
5.58 1192
5.64 1166
5.7 1079
5.76 972
5.82 985
5.88 985
5.94 922
6 859
6.06 895
6.12 872
6.18 860
6.24 799
6.3 789
6.36 849
6.42 849
6.48 807
6.54 820
6.6 794
6.66 772
6.72 740
6.78 793
6.84 791
6.9 763
6.96 768
7.02 783
7.08 770
7.14 748
7.2 780
7.26 776
7.32 734
7.38 729
7.44 736
7.5 695
7.56 701
7.62 715
7.68 710
7.74 719
7.8 734
7.86 769
7.92 725
7.98 710
8.04 692
8.1 693
8.16 718
8.22 711
8.28 699
8.34 704
8.4 649
8.46 665
8.52 701
8.58 718
8.64 687
8.7 691
8.76 677
8.82 686
8.88 699
8.94 746
9 779
9.06 737
9.12 771
9.18 725
9.24 802
9.3 857
9.36 1004
9.42 806
9.48 722
9.54 669
9.6 697
9.66 697
9.72 642
9.78 636
9.84 656
9.9 630
9.96 706
10.02 692
10.08 626
10.14 657
10.2 657
10.26 654
10.32 647
10.38 670
10.44 651
10.5 642
10.56 660
10.62 634
10.68 733
10.74 737
10.8 786
10.86 713
10.92 715
10.98 618
11.04 631
11.1 625
11.16 668
11.22 630
11.28 576
11.34 567
11.4 606
11.46 604
11.52 605
11.58 607
11.64 601
11.7 631
11.76 577
11.82 626
11.88 644
11.94 587
12 607
12.06 636
12.12 663
12.18 619
12.24 646
12.3 630
12.36 628
12.42 617
12.48 650
12.54 633
12.6 594
12.66 642
12.72 649
12.78 658
12.84 644
12.9 630
12.96 653
13.02 639
13.08 650
13.14 633
13.2 656
13.26 654
13.32 675
13.38 655
13.44 682
13.5 640
13.56 688
13.62 632
13.68 692
13.74 643
13.8 640
13.86 636
13.92 645
13.98 705
14.04 665
14.1 709
14.16 692
14.22 714
14.28 752
14.34 721
14.4 725
14.46 666
14.52 789
14.58 730
14.64 706
14.7 689
14.76 702
14.82 744
14.88 687
14.94 704
15 699
15.06 773
15.12 707
15.18 760
15.24 794
15.3 745
15.36 754
15.42 804
15.48 793
15.54 718
15.6 758
15.66 782
15.72 760
15.78 796
15.84 795
15.9 834
15.96 754
16.02 792
16.08 864
16.14 846
16.2 851
16.26 799
16.32 829
16.38 894
16.44 889
16.5 861
16.56 896
16.62 913
16.68 911
16.74 919
16.8 955
16.86 1025
16.92 1130
16.98 1342
17.04 1332
17.1 1009
17.16 963
17.22 920
17.28 954
17.34 977
17.4 946
17.46 1048
17.52 961
17.58 1015
17.64 1012
17.7 1015
17.76 1043
17.82 1034
17.88 1044
17.94 1086
18 1061
18.06 1056
18.12 1078
18.18 1076
18.24 1050
18.3 1061
18.36 1076
18.42 1204
18.48 1143
18.54 1032
18.6 1135
18.66 1163
18.72 1204
18.78 1183
18.84 1194
18.9 1182
18.96 1201
19.02 1229
19.08 1185
19.14 1223
19.2 1227
19.26 1353
19.32 1258
19.38 1317
19.44 1391
19.5 1302
19.56 1335
19.62 1288
19.68 1339
19.74 1317
19.8 1324
19.86 1334
19.92 1371
19.98 1462
20 1417

File: 39-23.ASC
3 2759
3.06 2167
3.12 1993
3.18 1828
3.24 1775
3.3 1800
3.36 1645
3.42 1656
3.48 1573
3.54 1501
3.6 1430
3.66 1404
3.72 1416
3.78 1367
3.84 1332
3.9 1305
3.96 1254
4.02 1318
4.08 1235
4.14 1235
4.2 1159
4.26 1095
4.32 1099
4.38 1074
4.44 1067
4.5 1054
4.56 1056
4.62 1042
4.68 1012
4.74 988
4.8 946
4.86 912
4.92 927
4.98 883
5.04 898
5.1 921
5.16 908
5.22 880
5.28 839
5.34 876
5.4 884
5.46 856
5.52 848
5.58 913
5.64 842
5.7 859
5.76 850
5.82 875
5.88 869
5.94 855
6 843
6.06 892
6.12 859
6.18 851
6.24 829
6.3 853
6.36 836
6.42 805
6.48 771
6.54 855
6.6 816
6.66 842
6.72 801
6.78 752
6.84 810
6.9 763
6.96 779
7.02 725
7.08 776
7.14 806
7.2 760
7.26 729
7.32 752
7.38 777
7.44 739
7.5 745
7.56 775
7.62 781
7.68 774
7.74 754
7.8 798
7.86 805
7.92 815
7.98 840
8.04 775
8.1 747
8.16 756
8.22 754
8.28 763
8.34 820
8.4 793
8.46 789
8.52 807
8.58 773
8.64 763
8.7 761
8.76 771
8.82 759
8.88 798
8.94 838
9 841
9.06 862
9.12 812
9.18 769
9.24 739
9.3 741
9.36 773
9.42 769
9.48 769
9.54 735
9.6 752
9.66 702
9.72 715
9.78 735
9.84 702
9.9 723
9.96 844
10.02 805
10.08 809
10.14 684
10.2 709
10.26 658
10.32 640
10.38 746
10.44 704
10.5 731
10.56 715
10.62 713
10.68 673
10.74 719
10.8 673
10.86 727
10.92 703
10.98 711
11.04 710
11.1 656
11.16 672
11.22 660
11.28 720
11.34 651
11.4 692
11.46 713
11.52 652
11.58 614
11.64 660
11.7 706
11.76 692
11.82 612
11.88 705
11.94 694
12 756
12.06 681
12.12 711
12.18 695
12.24 743
12.3 677
12.36 744
12.42 755
12.48 783
12.54 727
12.6 715
12.66 751
12.72 761
12.78 741
12.84 695
12.9 754
12.96 702
13.02 807
13.08 738
13.14 797
13.2 705
13.26 751
13.32 753
13.38 754
13.44 770
13.5 880
13.56 750
13.62 766
13.68 767
13.74 769
13.8 757
13.86 725
13.92 823
13.98 775
14.04 814
14.1 773
14.16 793
14.22 799
14.28 777
14.34 766
14.4 767
14.46 811
14.52 869
14.58 830
14.64 827
14.7 868
14.76 867
14.82 833
14.88 839
14.94 878
15 869
15.06 888
15.12 895
15.18 878
15.24 905
15.3 867
15.36 889
15.42 940
15.48 918
15.54 889
15.6 942
15.66 910
15.72 933
15.78 959
15.84 936
15.9 935
15.96 946
16.02 933
16.08 1017
16.14 1035
16.2 1040
16.26 1028
16.32 1011
16.38 1028
16.44 1032
16.5 1083
16.56 1078
16.62 1106
16.68 1113
16.74 1132
16.8 1159
16.86 1203
16.92 1242
16.98 1441
17.04 1545
17.1 1358
17.16 1184
17.22 1237
17.28 1208
17.34 1174
17.4 1250
17.46 1261
17.52 1183
17.58 1261
17.64 1239
17.7 1245
17.76 1248
17.82 1343
17.88 1250
17.94 1318
18 1309
18.06 1391
18.12 1308
18.18 1359
18.24 1280
18.3 1393
18.36 1435
18.42 1422
18.48 1483
18.54 1487
18.6 1489
18.66 1453
18.72 1462
18.78 1539
18.84 1540
18.9 1524
18.96 1584
19.02 1536
19.08 1530
19.14 1613
19.2 1630
19.26 1591
19.32 1604
19.38 1701
19.44 1662
19.5 1632
19.56 1733
19.62 1736
19.68 1681
19.74 1801
19.8 1694
19.86 1821
19.92 1746
19.98 1780
20 1829

File: 40-6.ASC
3 2162
3.06 1688
3.12 1513
3.18 1374
3.24 1317
3.3 1306
3.36 1233
3.42 1325
3.48 1217
3.54 1096
3.6 1182
3.66 1119
3.72 1076
3.78 1150
3.84 1110
3.9 1022
3.96 1029
4.02 1041
4.08 1022
4.14 1001
4.2 984
4.26 956
4.32 975
4.38 994
4.44 958
4.5 965
4.56 924
4.62 998
4.68 934
4.74 916
4.8 949
4.86 906
4.92 939
4.98 996
5.04 999
5.1 1041
5.16 1103
5.22 1125
5.28 1213
5.34 1309
5.4 1524
5.46 1734
5.52 2185
5.58 2105
5.64 1409
5.7 1214
5.76 1058
5.82 994
5.88 954
5.94 911
6 872
6.06 798
6.12 802
6.18 839
6.24 802
6.3 731
6.36 739
6.42 799
6.48 752
6.54 751
6.6 713
6.66 730
6.72 793
6.78 766
6.84 730
6.9 762
6.96 694
7.02 707
7.08 726
7.14 754
7.2 726
7.26 737
7.32 717
7.38 759
7.44 751
7.5 706
7.56 694
7.62 769
7.68 712
7.74 747
7.8 709
7.86 718
7.92 730
7.98 769
8.04 712
8.1 744
8.16 743
8.22 694
8.28 742
8.34 754
8.4 794
8.46 714
8.52 789
8.58 780
8.64 756
8.7 719
8.76 747
8.82 773
8.88 730
8.94 801
9 792
9.06 813
9.12 800
9.18 854
9.24 901
9.3 934
9.36 1116
9.42 1201
9.48 1263
9.54 936
9.6 883
9.66 821
9.72 818
9.78 751
9.84 820
9.9 806
9.96 771
10.02 779
10.08 791
10.14 776
10.2 772
10.26 840
10.32 821
10.38 777
10.44 860
10.5 830
10.56 825
10.62 834
10.68 910
10.74 898
10.8 1064
10.86 1102
10.92 1134
10.98 982
11.04 938
11.1 917
11.16 833
11.22 814
11.28 847
11.34 797
11.4 828
11.46 766
11.52 824
11.58 831
11.64 885
11.7 785
11.76 863
11.82 867
11.88 819
11.94 859
12 849
12.06 853
12.12 872
12.18 897
12.24 925
12.3 894
12.36 907
12.42 896
12.48 876
12.54 886
12.6 876
12.66 901
12.72 854
12.78 927
12.84 891
12.9 875
12.96 955
13.02 895
13.08 867
13.14 967
13.2 902
13.26 953
13.32 953
13.38 951
13.44 952
13.5 912
13.56 949
13.62 982
13.68 1003
13.74 966
13.8 939
13.86 927
13.92 1030
13.98 986
14.04 1030
14.1 992
14.16 995
14.22 995
14.28 983
14.34 1046
14.4 1041
14.46 1008
14.52 1007
14.58 1055
14.64 1015
14.7 1012
14.76 1003
14.82 1034
14.88 1082
14.94 1047
15 1021
15.06 1106
15.12 1086
15.18 1078
15.24 1058
15.3 1092
15.36 1089
15.42 1134
15.48 1098
15.54 1114
15.6 1115
15.66 1135
15.72 1165
15.78 1125
15.84 1128
15.9 1213
15.96 1202
16.02 1220
16.08 1238
16.14 1169
16.2 1205
16.26 1240
16.32 1222
16.38 1213
16.44 1262
16.5 1223
16.56 1288
16.62 1298
16.68 1399
16.74 1372
16.8 1392
16.86 1511
16.92 1737
16.98 1992
17.04 2560
17.1 2510
17.16 1966
17.22 1538
17.28 1557
17.34 1444
17.4 1445
17.46 1560
17.52 1384
17.58 1444
17.64 1515
17.7 1470
17.76 1515
17.82 1533
17.88 1564
17.94 1581
18 1580
18.06 1597
18.12 1609
18.18 1640
18.24 1744
18.3 1754
18.36 1645
18.42 1738
18.48 1738
18.54 1753
18.6 1723
18.66 1780
18.72 1749
18.78 1943
18.84 1813
18.9 1785
18.96 1847
19.02 1877
19.08 1946
19.14 1916
19.2 1908
19.26 1894
19.32 1964
19.38 2015
19.44 2046
19.5 2132
19.56 2114
19.62 2217
19.68 2099
19.74 2059
19.8 2086
19.86 2073
19.92 2085
19.98 2192
20 2218

File: 41-2.ASC
3 2064
3.06 1801
3.12 1471
3.18 1421
3.24 1357
3.3 1364
3.36 1297
3.42 1244
3.48 1225
3.54 1217
3.6 1251
3.66 1188
3.72 1184
3.78 1178
3.84 1173
3.9 1135
3.96 1160
4.02 1096
4.08 1071
4.14 1027
4.2 1067
4.26 1081
4.32 1102
4.38 1010
4.44 1039
4.5 1011
4.56 984
4.62 1022
4.68 988
4.74 960
4.8 987
4.86 976
4.92 942
4.98 976
5.04 975
5.1 969
5.16 957
5.22 1027
5.28 970
5.34 938
5.4 879
5.46 914
5.52 901
5.58 889
5.64 885
5.7 806
5.76 862
5.82 856
5.88 854
5.94 860
6 877
6.06 836
6.12 825
6.18 820
6.24 828
6.3 844
6.36 827
6.42 819
6.48 797
6.54 824
6.6 859
6.66 801
6.72 776
6.78 777
6.84 838
6.9 787
6.96 805
7.02 814
7.08 813
7.14 777
7.2 775
7.26 772
7.32 741
7.38 683
7.44 737
7.5 766
7.56 745
7.62 750
7.68 742
7.74 721
7.8 743
7.86 703
7.92 769
7.98 757
8.04 742
8.1 699
8.16 714
8.22 691
8.28 681
8.34 673
8.4 697
8.46 670
8.52 704
8.58 660
8.64 690
8.7 657
8.76 692
8.82 687
8.88 628
8.94 624
9 677
9.06 676
9.12 662
9.18 633
9.24 623
9.3 590
9.36 603
9.42 597
9.48 628
9.54 566
9.6 614
9.66 642
9.72 639
9.78 630
9.84 563
9.9 616
9.96 605
10.02 605
10.08 607
10.14 578
10.2 549
10.26 569
10.32 588
10.38 599
10.44 583
10.5 561
10.56 594
10.62 586
10.68 520
10.74 578
10.8 560
10.86 577
10.92 557
10.98 534
11.04 562
11.1 537
11.16 541
11.22 558
11.28 559
11.34 522
11.4 534
11.46 511
11.52 540
11.58 550
11.64 527
11.7 560
11.76 502
11.82 544
11.88 515
11.94 516
12 556
12.06 476
12.12 487
12.18 553
12.24 555
12.3 445
12.36 519
12.42 515
12.48 526
12.54 519
12.6 513
12.66 476
12.72 508
12.78 536
12.84 528
12.9 507
12.96 519
13.02 511
13.08 510
13.14 484
13.2 450
13.26 509
13.32 492
13.38 489
13.44 495
13.5 528
13.56 521
13.62 518
13.68 449
13.74 490
13.8 512
13.86 498
13.92 489
13.98 495
14.04 517
14.1 511
14.16 490
14.22 496
14.28 527
14.34 497
14.4 500
14.46 506
14.52 482
14.58 482
14.64 469
14.7 490
14.76 507
14.82 465
14.88 509
14.94 479
15 519
15.06 495
15.12 507
15.18 465
15.24 468
15.3 503
15.36 482
15.42 457
15.48 495
15.54 473
15.6 467
15.66 468
15.72 477
15.78 452
15.84 476
15.9 460
15.96 509
16.02 464
16.08 511
16.14 499
16.2 488
16.26 502
16.32 491
16.38 499
16.44 490
16.5 441
16.56 460
16.62 494
16.68 492
16.74 447
16.8 480
16.86 434
16.92 470
16.98 501
17.04 508
17.1 590
17.16 659
17.22 687
17.28 586
17.34 497
17.4 511
17.46 494
17.52 463
17.58 427
17.64 442
17.7 467
17.76 449
17.82 474
17.88 533
17.94 489
18 511
18.06 490
18.12 453
18.18 478
18.24 458
18.3 487
18.36 489
18.42 478
18.48 460
18.54 472
18.6 503
18.66 486
18.72 473
18.78 480
18.84 494
18.9 489
18.96 479
19.02 505
19.08 470
19.14 478
19.2 489
19.26 486
19.32 475
19.38 449
19.44 524
19.5 490
19.56 489
19.62 487
19.68 489
19.74 458
19.8 499
19.86 497
19.92 473
19.98 524
20 421

File: 41-4.ASC
3 2142
3.06 2373
3.12 1517
3.18 1475
3.24 1421
3.3 1415
3.36 1401
3.42 1380
3.48 1318
3.54 1305
3.6 1241
3.66 1262
3.72 1339
3.78 1298
3.84 1246
3.9 1303
3.96 1206
4.02 1240
4.08 1228
4.14 1173
4.2 1208
4.26 1245
4.32 1175
4.38 1191
4.44 1122
4.5 1130
4.56 1149
4.62 1144
4.68 1169
4.74 1154
4.8 1189
4.86 1211
4.92 1140
4.98 1114
5.04 1206
5.1 1143
5.16 1189
5.22 1169
5.28 1199
5.34 1186
5.4 1212
5.46 1350
5.52 1342
5.58 1164
5.64 1098
5.7 1091
5.76 1029
5.82 1028
5.88 1020
5.94 1023
6 1011
6.06 1028
6.12 1014
6.18 1007
6.24 1007
6.3 944
6.36 992
6.42 977
6.48 930
6.54 991
6.6 997
6.66 973
6.72 976
6.78 983
6.84 900
6.9 915
6.96 931
7.02 909
7.08 865
7.14 866
7.2 905
7.26 849
7.32 860
7.38 838
7.44 861
7.5 828
7.56 855
7.62 842
7.68 835
7.74 878
7.8 882
7.86 843
7.92 832
7.98 914
8.04 873
8.1 779
8.16 805
8.22 805
8.28 790
8.34 839
8.4 870
8.46 833
8.52 796
8.58 819
8.64 762
8.7 794
8.76 788
8.82 746
8.88 750
8.94 725
9 737
9.06 705
9.12 693
9.18 679
9.24 710
9.3 751
9.36 746
9.42 770
9.48 701
9.54 696
9.6 718
9.66 734
9.72 666
9.78 629
9.84 677
9.9 663
9.96 637
10.02 680
10.08 635
10.14 652
10.2 611
10.26 663
10.32 698
10.38 669
10.44 651
10.5 673
10.56 650
10.62 640
10.68 610
10.74 669
10.8 644
10.86 615
10.92 611
10.98 635
11.04 574
11.1 619
11.16 597
11.22 583
11.28 591
11.34 583
11.4 577
11.46 614
11.52 595
11.58 619
11.64 583
11.7 572
11.76 538
11.82 580
11.88 583
11.94 525
12 578
12.06 572
12.12 587
12.18 582
12.24 564
12.3 577
12.36 568
12.42 567
12.48 567
12.54 585
12.6 529
12.66 586
12.72 557
12.78 546
12.84 567
12.9 548
12.96 535
13.02 544
13.08 562
13.14 548
13.2 575
13.26 594
13.32 556
13.38 558
13.44 534
13.5 533
13.56 556
13.62 543
13.68 551
13.74 564
13.8 547
13.86 545
13.92 557
13.98 545
14.04 564
14.1 516
14.16 563
14.22 591
14.28 547
14.34 518
14.4 509
14.46 544
14.52 521
14.58 484
14.64 557
14.7 560
14.76 576
14.82 545
14.88 562
14.94 558
15 537
15.06 564
15.12 526
15.18 536
15.24 542
15.3 557
15.36 524
15.42 528
15.48 503
15.54 549
15.6 526
15.66 516
15.72 527
15.78 505
15.84 514
15.9 514
15.96 553
16.02 531
16.08 562
16.14 525
16.2 521
16.26 509
16.32 538
16.38 523
16.44 522
16.5 503
16.56 558
16.62 519
16.68 582
16.74 533
16.8 542
16.86 523
16.92 592
16.98 638
17.04 629
17.1 649
17.16 655
17.22 655
17.28 630
17.34 560
17.4 586
17.46 555
17.52 569
17.58 543
17.64 532
17.7 541
17.76 577
17.82 526
17.88 533
17.94 581
18 556
18.06 502
18.12 554
18.18 555
18.24 564
18.3 574
18.36 552
18.42 593
18.48 544
18.54 551
18.6 518
18.66 517
18.72 552
18.78 582
18.84 548
18.9 573
18.96 565
19.02 584
19.08 570
19.14 566
19.2 545
19.26 539
19.32 606
19.38 576
19.44 536
19.5 575
19.56 570
19.62 571
19.68 594
19.74 598
19.8 597
19.86 597
19.92 529
19.98 585
20 603

File: 41-5.ASC
3 2654
3.06 2044
3.12 1794
3.18 1709
3.24 1542
3.3 1535
3.36 1386
3.42 1257
3.48 1318
3.54 1322
3.6 1217
3.66 1283
3.72 1206
3.78 1194
3.84 1239
3.9 1167
3.96 1146
4.02 1132
4.08 1110
4.14 1085
4.2 1092
4.26 1064
4.32 1139
4.38 1035
4.44 1048
4.5 1017
4.56 1075
4.62 1091
4.68 1029
4.74 995
4.8 1076
4.86 1063
4.92 1079
4.98 1090
5.04 1080
5.1 1134
5.16 1227
5.22 1191
5.28 1396
5.34 1459
5.4 1740
5.46 2002
5.52 1575
5.58 1277
5.64 1087
5.7 1059
5.76 1065
5.82 1036
5.88 959
5.94 911
6 926
6.06 861
6.12 947
6.18 877
6.24 890
6.3 845
6.36 901
6.42 889
6.48 866
6.54 858
6.6 793
6.66 898
6.72 822
6.78 844
6.84 843
6.9 838
6.96 865
7.02 856
7.08 842
7.14 848
7.2 803
7.26 782
7.32 819
7.38 718
7.44 751
7.5 750
7.56 727
7.62 783
7.68 708
7.74 744
7.8 740
7.86 736
7.92 774
7.98 737
8.04 687
8.1 697
8.16 669
8.22 700
8.28 679
8.34 687
8.4 693
8.46 684
8.52 674
8.58 650
8.64 670
8.7 758
8.76 724
8.82 668
8.88 660
8.94 651
9 684
9.06 654
9.12 687
9.18 672
9.24 669
9.3 728
9.36 789
9.42 752
9.48 773
9.54 646
9.6 675
9.66 620
9.72 621
9.78 556
9.84 597
9.9 637
9.96 553
10.02 579
10.08 593
10.14 590
10.2 611
10.26 627
10.32 563
10.38 570
10.44 571
10.5 632
10.56 600
10.62 608
10.68 603
10.74 588
10.8 615
10.86 658
10.92 601
10.98 606
11.04 601
11.1 531
11.16 566
11.22 558
11.28 547
11.34 589
11.4 566
11.46 563
11.52 573
11.58 545
11.64 499
11.7 542
11.76 547
11.82 533
11.88 529
11.94 557
12 532
12.06 510
12.12 536
12.18 516
12.24 522
12.3 504
12.36 513
12.42 512
12.48 587
12.54 522
12.6 524
12.66 524
12.72 537
12.78 547
12.84 548
12.9 492
12.96 511
13.02 496
13.08 475
13.14 482
13.2 506
13.26 498
13.32 510
13.38 496
13.44 501
13.5 516
13.56 507
13.62 484
13.68 499
13.74 496
13.8 528
13.86 517
13.92 499
13.98 503
14.04 489
14.1 551
14.16 501
14.22 511
14.28 491
14.34 512
14.4 513
14.46 518
14.52 503
14.58 524
14.64 509
14.7 525
14.76 514
14.82 506
14.88 502
14.94 432
15 472
15.06 538
15.12 503
15.18 528
15.24 498
15.3 451
15.36 507
15.42 511
15.48 450
15.54 517
15.6 477
15.66 493
15.72 508
15.78 452
15.84 460
15.9 496
15.96 496
16.02 521
16.08 468
16.14 473
16.2 496
16.26 474
16.32 485
16.38 474
16.44 468
16.5 486
16.56 507
16.62 505
16.68 491
16.74 500
16.8 494
16.86 521
16.92 506
16.98 546
17.04 512
17.1 623
17.16 542
17.22 585
17.28 546
17.34 522
17.4 482
17.46 497
17.52 509
17.58 498
17.64 496
17.7 497
17.76 490
17.82 476
17.88 487
17.94 530
18 511
18.06 452
18.12 472
18.18 493
18.24 503
18.3 479
18.36 503
18.42 485
18.48 537
18.54 503
18.6 463
18.66 468
18.72 499
18.78 526
18.84 525
18.9 530
18.96 509
19.02 514
19.08 540
19.14 535
19.2 513
19.26 537
19.32 487
19.38 510
19.44 520
19.5 542
19.56 519
19.62 552
19.68 554
19.74 541
19.8 529
19.86 489
19.92 515
19.98 531
20 525

File: 41-6.ASC
3 2432
3.06 1802
3.12 1618
3.18 1542
3.24 1502
3.3 1455
3.36 1461
3.42 1447
3.48 1314
3.54 1298
3.6 1283
3.66 1314
3.72 1226
3.78 1224
3.84 1294
3.9 1226
3.96 1255
4.02 1179
4.08 1232
4.14 1282
4.2 1247
4.26 1154
4.32 1214
4.38 1176
4.44 1148
4.5 1151
4.56 1135
4.62 1124
4.68 1090
4.74 1119
4.8 1143
4.86 1166
4.92 1097
4.98 1134
5.04 1135
5.1 1146
5.16 1178
5.22 1130
5.28 1094
5.34 1133
5.4 1164
5.46 1173
5.52 1185
5.58 1177
5.64 1121
5.7 1093
5.76 1087
5.82 956
5.88 978
5.94 1025
6 994
6.06 921
6.12 941
6.18 992
6.24 969
6.3 897
6.36 886
6.42 892
6.48 949
6.54 944
6.6 890
6.66 908
6.72 854
6.78 878
6.84 899
6.9 848
6.96 823
7.02 798
7.08 874
7.14 790
7.2 816
7.26 778
7.32 781
7.38 802
7.44 768
7.5 808
7.56 750
7.62 801
7.68 747
7.74 778
7.8 744
7.86 748
7.92 737
7.98 753
8.04 741
8.1 746
8.16 681
8.22 687
8.28 673
8.34 753
8.4 730
8.46 681
8.52 690
8.58 693
8.64 668
8.7 710
8.76 734
8.82 698
8.88 667
8.94 709
9 709
9.06 633
9.12 661
9.18 650
9.24 691
9.3 676
9.36 663
9.42 680
9.48 685
9.54 700
9.6 636
9.66 721
9.72 662
9.78 626
9.84 636
9.9 626
9.96 650
10.02 574
10.08 609
10.14 610
10.2 562
10.26 586
10.32 637
10.38 572
10.44 622
10.5 639
10.56 598
10.62 611
10.68 616
10.74 617
10.8 598
10.86 611
10.92 580
10.98 558
11.04 585
11.1 576
11.16 567
11.22 586
11.28 556
11.34 560
11.4 610
11.46 562
11.52 540
11.58 574
11.64 544
11.7 557
11.76 518
11.82 569
11.88 511
11.94 525
12 529
12.06 537
12.12 537
12.18 545
12.24 536
12.3 506
12.36 509
12.42 547
12.48 508
12.54 544
12.6 558
12.66 523
12.72 513
12.78 536
12.84 516
12.9 495
12.96 527
13.02 525
13.08 524
13.14 491
13.2 542
13.26 503
13.32 490
13.38 516
13.44 500
13.5 516
13.56 548
13.62 519
13.68 521
13.74 536
13.8 537
13.86 506
13.92 534
13.98 499
14.04 485
14.1 533
14.16 519
14.22 462
14.28 493
14.34 493
14.4 510
14.46 500
14.52 516
14.58 514
14.64 559
14.7 514
14.76 521
14.82 526
14.88 512
14.94 507
15 536
15.06 492
15.12 541
15.18 519
15.24 525
15.3 540
15.36 571
15.42 532
15.48 506
15.54 519
15.6 541
15.66 521
15.72 513
15.78 540
15.84 511
15.9 536
15.96 541
16.02 531
16.08 530
16.14 539
16.2 535
16.26 483
16.32 519
16.38 539
16.44 566
16.5 541
16.56 561
16.62 545
16.68 552
16.74 580
16.8 544
16.86 547
16.92 577
16.98 643
17.04 626
17.1 761
17.16 793
17.22 830
17.28 612
17.34 586
17.4 565
17.46 554
17.52 578
17.58 570
17.64 563
17.7 572
17.76 538
17.82 561
17.88 543
17.94 568
18 569
18.06 560
18.12 582
18.18 552
18.24 573
18.3 574
18.36 546
18.42 598
18.48 615
18.54 568
18.6 563
18.66 499
18.72 583
18.78 540
18.84 550
18.9 578
18.96 574
19.02 579
19.08 562
19.14 566
19.2 596
19.26 563
19.32 627
19.38 598
19.44 594
19.5 575
19.56 589
19.62 605
19.68 593
19.74 591
19.8 566
19.86 595
19.92 649
19.98 604
20 596