Folder: CPC-code/xrd-UiO-67/pxrddata (part 23)

File: 46-1.ASC
3 2221
3.06 1810
3.12 1564
3.18 1500
3.24 1448
3.3 1466
3.36 1372
3.42 1384
3.48 1360
3.54 1292
3.6 1284
3.66 1232
3.72 1171
3.78 1197
3.84 1207
3.9 1156
3.96 1186
4.02 1100
4.08 1084
4.14 1091
4.2 1060
4.26 1067
4.32 1033
4.38 1046
4.44 982
4.5 1036
4.56 963
4.62 960
4.68 935
4.74 926
4.8 1004
4.86 962
4.92 916
4.98 957
5.04 929
5.1 965
5.16 1047
5.22 1060
5.28 1140
5.34 1204
5.4 1420
5.46 1689
5.52 1778
5.58 1198
5.64 1166
5.7 1166
5.76 1182
5.82 1147
5.88 1157
5.94 860
6 802
6.06 791
6.12 699
6.18 667
6.24 681
6.3 697
6.36 660
6.42 641
6.48 652
6.54 621
6.6 627
6.66 602
6.72 601
6.78 648
6.84 641
6.9 644
6.96 615
7.02 637
7.08 557
7.14 587
7.2 575
7.26 624
7.32 587
7.38 567
7.44 586
7.5 554
7.56 557
7.62 548
7.68 530
7.74 571
7.8 540
7.86 536
7.92 538
7.98 570
8.04 587
8.1 561
8.16 547
8.22 544
8.28 528
8.34 570
8.4 527
8.46 570
8.52 518
8.58 519
8.64 536
8.7 503
8.76 495
8.82 588
8.88 570
8.94 534
9 512
9.06 559
9.12 610
9.18 595
9.24 637
9.3 730
9.36 857
9.42 1006
9.48 680
9.54 553
9.6 530
9.66 564
9.72 561
9.78 533
9.84 566
9.9 565
9.96 540
10.02 526
10.08 549
10.14 537
10.2 578
10.26 584
10.32 566
10.38 514
10.44 516
10.5 484
10.56 543
10.62 564
10.68 598
10.74 620
10.8 668
10.86 759
10.92 619
10.98 589
11.04 609
11.1 587
11.16 522
11.22 525
11.28 494
11.34 533
11.4 503
11.46 520
11.52 566
11.58 543
11.64 562
11.7 518
11.76 544
11.82 495
11.88 495
11.94 487
12 518
12.06 559
12.12 538
12.18 538
12.24 583
12.3 565
12.36 519
12.42 515
12.48 542
12.54 532
12.6 577
12.66 500
12.72 531
12.78 514
12.84 522
12.9 533
12.96 526
13.02 571
13.08 522
13.14 552
13.2 560
13.26 502
13.32 555
13.38 573
13.44 565
13.5 552
13.56 562
13.62 531
13.68 581
13.74 558
13.8 548
13.86 580
13.92 570
13.98 585
14.04 583
14.1 563
14.16 620
14.22 605
14.28 589
14.34 663
14.4 580
14.46 588
14.52 571
14.58 567
14.64 639
14.7 596
14.76 624
14.82 576
14.88 629
14.94 634
15 598
15.06 640
15.12 634
15.18 627
15.24 646
15.3 604
15.36 614
15.42 670
15.48 621
15.54 606
15.6 661
15.66 632
15.72 678
15.78 660
15.84 641
15.9 634
15.96 656
16.02 648
16.08 716
16.14 661
16.2 665
16.26 681
16.32 719
16.38 689
16.44 700
16.5 696
16.56 783
16.62 740
16.68 729
16.74 701
16.8 793
16.86 725
16.92 736
16.98 818
17.04 905
17.1 934
17.16 766
17.22 748
17.28 809
17.34 806
17.4 791
17.46 814
17.52 822
17.58 876
17.64 834
17.7 831
17.76 817
17.82 807
17.88 870
17.94 847
18 835
18.06 845
18.12 849
18.18 849
18.24 847
18.3 915
18.36 941
18.42 837
18.48 867
18.54 922
18.6 896
18.66 921
18.72 968
18.78 963
18.84 965
18.9 954
18.96 953
19.02 1014
19.08 989
19.14 981
19.2 1076
19.26 1036
19.32 982
19.38 1021
19.44 1098
19.5 1145
19.56 1197
19.62 1131
19.68 1145
19.74 1083
19.8 1082
19.86 1039
19.92 1110
19.98 1083
20 1060

File: 46-4.ASC
3 2949
3.06 2553
3.12 2231
3.18 2108
3.24 2062
3.3 1939
3.36 1929
3.42 1947
3.48 1882
3.54 1753
3.6 1716
3.66 1573
3.72 1505
3.78 1468
3.84 1447
3.9 1369
3.96 1319
4.02 1267
4.08 1246
4.14 1140
4.2 1188
4.26 1199
4.32 1189
4.38 1067
4.44 1152
4.5 1032
4.56 1028
4.62 1028
4.68 994
4.74 975
4.8 968
4.86 958
4.92 945
4.98 949
5.04 859
5.1 891
5.16 909
5.22 879
5.28 942
5.34 911
5.4 973
5.46 991
5.52 982
5.58 872
5.64 870
5.7 823
5.76 814
5.82 794
5.88 805
5.94 765
6 710
6.06 764
6.12 760
6.18 702
6.24 721
6.3 699
6.36 725
6.42 752
6.48 707
6.54 685
6.6 727
6.66 733
6.72 743
6.78 708
6.84 684
6.9 717
6.96 688
7.02 731
7.08 680
7.14 677
7.2 700
7.26 696
7.32 655
7.38 667
7.44 664
7.5 692
7.56 692
7.62 639
7.68 590
7.74 647
7.8 650
7.86 588
7.92 650
7.98 672
8.04 608
8.1 611
8.16 639
8.22 608
8.28 645
8.34 668
8.4 564
8.46 664
8.52 649
8.58 576
8.64 606
8.7 612
8.76 579
8.82 643
8.88 666
8.94 629
9 636
9.06 590
9.12 605
9.18 616
9.24 650
9.3 642
9.36 688
9.42 650
9.48 653
9.54 675
9.6 596
9.66 640
9.72 624
9.78 626
9.84 611
9.9 596
9.96 592
10.02 551
10.08 558
10.14 609
10.2 626
10.26 584
10.32 591
10.38 605
10.44 594
10.5 569
10.56 576
10.62 618
10.68 589
10.74 618
10.8 627
10.86 611
10.92 614
10.98 635
11.04 637
11.1 604
11.16 602
11.22 544
11.28 622
11.34 593
11.4 575
11.46 570
11.52 563
11.58 541
11.64 551
11.7 576
11.76 574
11.82 616
11.88 575
11.94 589
12 583
12.06 599
12.12 644
12.18 600
12.24 581
12.3 609
12.36 598
12.42 601
12.48 595
12.54 551
12.6 595
12.66 572
12.72 584
12.78 628
12.84 644
12.9 646
12.96 643
13.02 572
13.08 666
13.14 608
13.2 628
13.26 594
13.32 612
13.38 649
13.44 625
13.5 646
13.56 657
13.62 609
13.68 693
13.74 660
13.8 631
13.86 666
13.92 649
13.98 641
14.04 661
14.1 737
14.16 708
14.22 707
14.28 664
14.34 730
14.4 738
14.46 705
14.52 753
14.58 773
14.64 703
14.7 707
14.76 765
14.82 710
14.88 774
14.94 769
15 698
15.06 731
15.12 723
15.18 751
15.24 771
15.3 759
15.36 772
15.42 744
15.48 822
15.54 795
15.6 831
15.66 805
15.72 792
15.78 782
15.84 836
15.9 767
15.96 798
16.02 839
16.08 831
16.14 838
16.2 830
16.26 899
16.32 859
16.38 904
16.44 860
16.5 945
16.56 920
16.62 856
16.68 924
16.74 932
16.8 988
16.86 1016
16.92 1028
16.98 1266
17.04 1389
17.1 1164
17.16 1043
17.22 1013
17.28 1011
17.34 1033
17.4 991
17.46 1004
17.52 1014
17.58 1024
17.64 1060
17.7 1061
17.76 1070
17.82 1083
17.88 1057
17.94 1066
18 1091
18.06 1099
18.12 1148
18.18 1209
18.24 1090
18.3 1144
18.36 1156
18.42 1176
18.48 1154
18.54 1208
18.6 1188
18.66 1219
18.72 1201
18.78 1156
18.84 1255
18.9 1227
18.96 1274
19.02 1237
19.08 1275
19.14 1263
19.2 1312
19.26 1360
19.32 1289
19.38 1361
19.44 1369
19.5 1314
19.56 1319
19.62 1375
19.68 1451
19.74 1371
19.8 1346
19.86 1445
19.92 1434
19.98 1414
20 1425

File: 46-11.ASC
3 2910
3.06 2409
3.12 2106
3.18 2045
3.24 1938
3.3 1797
3.36 1792
3.42 1722
3.48 1734
3.54 1697
3.6 1522
3.66 1547
3.72 1453
3.78 1390
3.84 1376
3.9 1369
3.96 1464
4.02 1280
4.08 1282
4.14 1246
4.2 1275
4.26 1192
4.32 1183
4.38 1160
4.44 1213
4.5 1134
4.56 1175
4.62 1097
4.68 1230
4.74 1203
4.8 1251
4.86 1250
4.92 1321
4.98 1315
5.04 1380
5.1 1488
5.16 1679
5.22 1950
5.28 2285
5.34 2731
5.4 3984
5.46 4218
5.52 2118
5.58 1701
5.64 1410
5.7 1283
5.76 1183
5.82 1114
5.88 1052
5.94 988
6 944
6.06 931
6.12 883
6.18 907
6.24 874
6.3 848
6.36 828
6.42 810
6.48 856
6.54 829
6.6 837
6.66 802
6.72 782
6.78 795
6.84 782
6.9 846
6.96 818
7.02 807
7.08 801
7.14 765
7.2 809
7.26 770
7.32 763
7.38 800
7.44 768
7.5 739
7.56 799
7.62 766
7.68 774
7.74 743
7.8 773
7.86 845
7.92 801
7.98 765
8.04 803
8.1 827
8.16 729
8.22 767
8.28 781
8.34 803
8.4 758
8.46 760
8.52 706
8.58 722
8.64 783
8.7 766
8.76 810
8.82 774
8.88 791
8.94 846
9 848
9.06 891
9.12 952
9.18 1022
9.24 1194
9.3 1463
9.36 1810
9.42 1203
9.48 894
9.54 851
9.6 839
9.66 822
9.72 827
9.78 839
9.84 819
9.9 810
9.96 783
10.02 796
10.08 789
10.14 798
10.2 843
10.26 800
10.32 783
10.38 811
10.44 798
10.5 860
10.56 914
10.62 967
10.68 1027
10.74 1138
10.8 1345
10.86 1068
10.92 1046
10.98 850
11.04 880
11.1 843
11.16 797
11.22 792
11.28 823
11.34 800
11.4 810
11.46 813
11.52 878
11.58 811
11.64 837
11.7 866
11.76 834
11.82 853
11.88 900
11.94 779
12 893
12.06 853
12.12 852
12.18 855
12.24 902
12.3 906
12.36 919
12.42 899
12.48 901
12.54 887
12.6 890
12.66 933
12.72 897
12.78 886
12.84 943
12.9 982
12.96 933
13.02 941
13.08 968
13.14 957
13.2 957
13.26 973
13.32 997
13.38 961
13.44 940
13.5 939
13.56 963
13.62 972
13.68 991
13.74 1007
13.8 992
13.86 997
13.92 1000
13.98 1028
14.04 1045
14.1 996
14.16 1035
14.22 1118
14.28 1070
14.34 1056
14.4 1024
14.46 1093
14.52 1052
14.58 1047
14.64 1048
14.7 1095
14.76 1101
14.82 1057
14.88 1083
14.94 1133
15 1070
15.06 1143
15.12 1141
15.18 1170
15.24 1127
15.3 1173
15.36 1104
15.42 1134
15.48 1159
15.54 1158
15.6 1212
15.66 1194
15.72 1177
15.78 1244
15.84 1217
15.9 1221
15.96 1165
16.02 1218
16.08 1232
16.14 1270
16.2 1294
16.26 1277
16.32 1362
16.38 1324
16.44 1340
16.5 1389
16.56 1369
16.62 1376
16.68 1330
16.74 1425
16.8 1534
16.86 1505
16.92 1704
16.98 1928
17.04 2027
17.1 1666
17.16 1478
17.22 1496
17.28 1544
17.34 1479
17.4 1502
17.46 1490
17.52 1524
17.58 1556
17.64 1623
17.7 1567
17.76 1623
17.82 1625
17.88 1651
17.94 1557
18 1699
18.06 1653
18.12 1576
18.18 1673
18.24 1647
18.3 1641
18.36 1622
18.42 1640
18.48 1660
18.54 1778
18.6 1710
18.66 1800
18.72 1815
18.78 1802
18.84 1797
18.9 1817
18.96 1761
19.02 1826
19.08 1869
19.14 1882
19.2 1815
19.26 1876
19.32 1930
19.38 1876
19.44 2071
19.5 2076
19.56 1989
19.62 2035
19.68 1942
19.74 2016
19.8 1992
19.86 2024
19.92 1991
19.98 2024
20 2033

File: 47-15.ASC
3 2174
3.06 1733
3.12 1517
3.18 1447
3.24 1378
3.3 1373
3.36 1334
3.42 1320
3.48 1313
3.54 1258
3.6 1287
3.66 1239
3.72 1186
3.78 1221
3.84 1259
3.9 1243
3.96 1296
4.02 1407
4.08 1404
4.14 1419
4.2 1219
4.26 1129
4.32 1003
4.38 985
4.44 946
4.5 977
4.56 900
4.62 970
4.68 941
4.74 894
4.8 993
4.86 1016
4.92 1074
4.98 1110
5.04 1189
5.1 1338
5.16 1435
5.22 1683
5.28 1994
5.34 2357
5.4 3167
5.46 3359
5.52 2694
5.58 2683
5.64 2975
5.7 3666
5.76 4818
5.82 4581
5.88 2411
5.94 1395
6 1069
6.06 941
6.12 880
6.18 941
6.24 929
6.3 857
6.36 810
6.42 801
6.48 782
6.54 811
6.6 907
6.66 903
6.72 1028
6.78 1085
6.84 905
6.9 808
6.96 743
7.02 711
7.08 695
7.14 671
7.2 665
7.26 686
7.32 643
7.38 658
7.44 666
7.5 628
7.56 681
7.62 694
7.68 643
7.74 650
7.8 606
7.86 684
7.92 711
7.98 648
8.04 737
8.1 724
8.16 727
8.22 734
8.28 672
8.34 715
8.4 644
8.46 714
8.52 652
8.58 721
8.64 652
8.7 669
8.76 732
8.82 731
8.88 724
8.94 753
9 783
9.06 822
9.12 974
9.18 1026
9.24 1294
9.3 1736
9.36 2230
9.42 1324
9.48 860
9.54 819
9.6 709
9.66 765
9.72 705
9.78 772
9.84 749
9.9 788
9.96 766
10.02 829
10.08 893
10.14 994
10.2 1123
10.26 951
10.32 761
10.38 798
10.44 746
10.5 718
10.56 752
10.62 865
10.68 904
10.74 1021
10.8 1291
10.86 1237
10.92 1360
10.98 1681
11.04 1126
11.1 825
11.16 780
11.22 728
11.28 763
11.34 813
11.4 859
11.46 983
11.52 1106
11.58 935
11.64 838
11.7 811
11.76 722
11.82 777
11.88 763
11.94 710
12 769
12.06 790
12.12 810
12.18 882
12.24 926
12.3 878
12.36 816
12.42 796
12.48 710
12.54 734
12.6 802
12.66 711
12.72 792
12.78 737
12.84 758
12.9 717
12.96 797
13.02 781
13.08 786
13.14 837
13.2 783
13.26 815
13.32 860
13.38 896
13.44 857
13.5 827
13.56 876
13.62 848
13.68 837
13.74 805
13.8 817
13.86 833
13.92 825
13.98 834
14.04 842
14.1 821
14.16 878
14.22 897
14.28 927
14.34 869
14.4 971
14.46 891
14.52 884
14.58 884
14.64 889
14.7 939
14.76 968
14.82 1025
14.88 999
14.94 957
15 960
15.06 936
15.12 1000
15.18 1006
15.24 1003
15.3 976
15.36 994
15.42 975
15.48 1018
15.54 934
15.6 996
15.66 944
15.72 1050
15.78 919
15.84 1010
15.9 1011
15.96 984
16.02 1088
16.08 1000
16.14 1056
16.2 1103
16.26 1100
16.32 1184
16.38 1170
16.44 1134
16.5 1068
16.56 1119
16.62 1136
16.68 1129
16.74 1115
16.8 1142
16.86 1249
16.92 1463
16.98 1978
17.04 2252
17.1 1414
17.16 1192
17.22 1226
17.28 1253
17.34 1252
17.4 1234
17.46 1255
17.52 1252
17.58 1267
17.64 1279
17.7 1293
17.76 1311
17.82 1301
17.88 1390
17.94 1400
18 1376
18.06 1364
18.12 1331
18.18 1327
18.24 1338
18.3 1359
18.36 1371
18.42 1376
18.48 1447
18.54 1363
18.6 1438
18.66 1502
18.72 1547
18.78 1561
18.84 1556
18.9 1545
18.96 1470
19.02 1589
19.08 1663
19.14 1754
19.2 1738
19.26 1689
19.32 1555
19.38 1676
19.44 1798
19.5 1854
19.56 1944
19.62 1837
19.68 1693
19.74 1568
19.8 1603
19.86 1706
19.92 1644
19.98 1663
20 1649

File: 48-1.ASC
3 2213
3.06 1819
3.12 1553
3.18 1556
3.24 1449
3.3 1395
3.36 1360
3.42 1342
3.48 1345
3.54 1296
3.6 1257
3.66 1237
3.72 1269
3.78 1201
3.84 1147
3.9 1171
3.96 1166
4.02 1169
4.08 1222
4.14 1210
4.2 1166
4.26 1082
4.32 1054
4.38 1008
4.44 1016
4.5 982
4.56 989
4.62 941
4.68 991
4.74 964
4.8 995
4.86 1033
4.92 1108
4.98 1124
5.04 1164
5.1 1314
5.16 1382
5.22 1625
5.28 1817
5.34 2302
5.4 3167
5.46 2810
5.52 2234
5.58 2041
5.64 2223
5.7 2395
5.76 2557
5.82 1875
5.88 1319
5.94 1042
6 990
6.06 865
6.12 823
6.18 854
6.24 778
6.3 785
6.36 768
6.42 792
6.48 811
6.54 789
6.6 784
6.66 833
6.72 825
6.78 868
6.84 824
6.9 751
6.96 768
7.02 697
7.08 722
7.14 688
7.2 703
7.26 707
7.32 665
7.38 699
7.44 682
7.5 692
7.56 704
7.62 695
7.68 668
7.74 704
7.8 654
7.86 719
7.92 762
7.98 733
8.04 703
8.1 740
8.16 695
8.22 656
8.28 671
8.34 709
8.4 686
8.46 709
8.52 680
8.58 705
8.64 665
8.7 666
8.76 674
8.82 731
8.88 688
8.94 734
9 758
9.06 813
9.12 830
9.18 883
9.24 1030
9.3 1410
9.36 1534
9.42 905
9.48 794
9.54 762
9.6 705
9.66 765
9.72 706
9.78 681
9.84 714
9.9 707
9.96 757
10.02 725
10.08 811
10.14 807
10.2 828
10.26 789
10.32 735
10.38 700
10.44 771
10.5 737
10.56 784
10.62 824
10.68 863
10.74 979
10.8 1030
10.86 964
10.92 1068
10.98 961
11.04 876
11.1 809
11.16 751
11.22 691
11.28 716
11.34 777
11.4 751
11.46 741
11.52 772
11.58 736
11.64 803
11.7 795
11.76 703
11.82 760
11.88 771
11.94 763
12 780
12.06 800
12.12 788
12.18 800
12.24 811
12.3 809
12.36 784
12.42 820
12.48 757
12.54 710
12.6 789
12.66 814
12.72 770
12.78 820
12.84 801
12.9 806
12.96 780
13.02 792
13.08 866
13.14 786
13.2 796
13.26 909
13.32 784
13.38 775
13.44 880
13.5 858
13.56 809
13.62 805
13.68 803
13.74 845
13.8 839
13.86 869
13.92 804
13.98 904
14.04 831
14.1 883
14.16 897
14.22 900
14.28 913
14.34 973
14.4 867
14.46 915
14.52 946
14.58 963
14.64 930
14.7 945
14.76 998
14.82 944
14.88 952
14.94 978
15 942
15.06 977
15.12 971
15.18 969
15.24 1025
15.3 987
15.36 978
15.42 986
15.48 1002
15.54 1015
15.6 1019
15.66 1020
15.72 1085
15.78 1045
15.84 1019
15.9 1053
15.96 1065
16.02 1138
16.08 1072
16.14 1102
16.2 1156
16.26 1117
16.32 1168
16.38 1186
16.44 1170
16.5 1198
16.56 1208
16.62 1192
16.68 1201
16.74 1229
16.8 1291
16.86 1348
16.92 1588
16.98 1761
17.04 1783
17.1 1446
17.16 1390
17.22 1268
17.28 1380
17.34 1348
17.4 1283
17.46 1327
17.52 1322
17.58 1266
17.64 1321
17.7 1347
17.76 1363
17.82 1339
17.88 1420
17.94 1408
18 1444
18.06 1380
18.12 1439
18.18 1418
18.24 1390
18.3 1468
18.36 1435
18.42 1463
18.48 1465
18.54 1523
18.6 1578
18.66 1531
18.72 1505
18.78 1555
18.84 1530
18.9 1585
18.96 1554
19.02 1602
19.08 1724
19.14 1588
19.2 1618
19.26 1583
19.32 1649
19.38 1707
19.44 1707
19.5 1800
19.56 1822
19.62 1711
19.68 1677
19.74 1759
19.8 1655
19.86 1747
19.92 1735
19.98 1737
20 1701

File: 48-12.ASC
3 2237
3.06 1852
3.12 1562
3.18 1481
3.24 1529
3.3 1448
3.36 1361
3.42 1324
3.48 1335
3.54 1263
3.6 1249
3.66 1198
3.72 1208
3.78 1126
3.84 1174
3.9 1060
3.96 1060
4.02 1105
4.08 1133
4.14 1120
4.2 1018
4.26 1070
4.32 1078
4.38 1075
4.44 1026
4.5 1044
4.56 1057
4.62 1023
4.68 1055
4.74 1122
4.8 1126
4.86 1144
4.92 1226
4.98 1326
5.04 1393
5.1 1443
5.16 1684
5.22 1872
5.28 2204
5.34 2846
5.4 4073
5.46 2675
5.52 2141
5.58 1948
5.64 1837
5.7 1837
5.76 1564
5.82 1307
5.88 1060
5.94 940
6 918
6.06 903
6.12 836
6.18 771
6.24 715
6.3 770
6.36 799
6.42 793
6.48 721
6.54 814
6.6 818
6.66 793
6.72 784
6.78 744
6.84 760
6.9 743
6.96 633
7.02 675
7.08 666
7.14 651
7.2 714
7.26 637
7.32 613
7.38 665
7.44 654
7.5 605
7.56 657
7.62 664
7.68 700
7.74 686
7.8 712
7.86 689
7.92 646
7.98 698
8.04 687
8.1 700
8.16 631
8.22 641
8.28 651
8.34 662
8.4 628
8.46 680
8.52 682
8.58 658
8.64 649
8.7 681
8.76 639
8.82 661
8.88 687
8.94 708
9 762
9.06 786
9.12 919
9.18 894
9.24 1203
9.3 1602
9.36 1276
9.42 755
9.48 734
9.54 711
9.6 707
9.66 697
9.72 724
9.78 705
9.84 675
9.9 746
9.96 689
10.02 616
10.08 700
10.14 711
10.2 737
10.26 679
10.32 635
10.38 683
10.44 704
10.5 709
10.56 754
10.62 787
10.68 896
10.74 1116
10.8 1064
10.86 902
10.92 916
10.98 834
11.04 705
11.1 681
11.16 675
11.22 692
11.28 648
11.34 674
11.4 678
11.46 687
11.52 682
11.58 689
11.64 651
11.7 612
11.76 650
11.82 675
11.88 655
11.94 681
12 681
12.06 731
12.12 665
12.18 754
12.24 750
12.3 679
12.36 655
12.42 692
12.48 660
12.54 666
12.6 631
12.66 640
12.72 673
12.78 686
12.84 642
12.9 644
12.96 677
13.02 639
13.08 659
13.14 658
13.2 692
13.26 681
13.32 666
13.38 693
13.44 690
13.5 637
13.56 675
13.62 697
13.68 766
13.74 718
13.8 685
13.86 678
13.92 666
13.98 708
14.04 717
14.1 679
14.16 710
14.22 754
14.28 774
14.34 756
14.4 745
14.46 697
14.52 690
14.58 781
14.64 694
14.7 765
14.76 680
14.82 782
14.88 736
14.94 764
15 718
15.06 798
15.12 759
15.18 700
15.24 773
15.3 749
15.36 755
15.42 744
15.48 755
15.54 778
15.6 815
15.66 733
15.72 758
15.78 798
15.84 826
15.9 812
15.96 785
16.02 785
16.08 837
16.14 826
16.2 843
16.26 877
16.32 833
16.38 893
16.44 881
16.5 847
16.56 850
16.62 861
16.68 910
16.74 870
16.8 845
16.86 899
16.92 911
16.98 921
17.04 907
17.1 891
17.16 917
17.22 988
17.28 931
17.34 941
17.4 947
17.46 1002
17.52 971
17.58 963
17.64 992
17.7 963
17.76 998
17.82 969
17.88 993
17.94 1012
18 1038
18.06 1036
18.12 1099
18.18 1035
18.24 1046
18.3 1097
18.36 1049
18.42 1031
18.48 1087
18.54 1103
18.6 1117
18.66 1076
18.72 1111
18.78 1155
18.84 1163
18.9 1173
18.96 1179
19.02 1163
19.08 1260
19.14 1162
19.2 1157
19.26 1148
19.32 1254
19.38 1347
19.44 1363
19.5 1395
19.56 1310
19.62 1267
19.68 1240
19.74 1209
19.8 1201
19.86 1248
19.92 1233
19.98 1243
20 1224

File: 50-1.ASC
3 5730
3.1 4059
3.2 2778
3.3 1757
3.4 1336
3.5 1157
3.6 1166
3.7 1113
3.8 1016
3.9 1004
4 923
4.1 897
4.2 906
4.3 879
4.4 785
4.5 775
4.6 750
4.7 722
4.8 783
4.9 731
5 678
5.1 748
5.2 690
5.3 716
5.4 725
5.5 732
5.6 766
5.7 735
5.8 669
5.9 636
6 630
6.1 621
6.2 596
6.3 620
6.4 623
6.5 590
6.6 591
6.7 578
6.8 539
6.9 591
7 613
7.1 607
7.2 531
7.3 593
7.4 621
7.5 575
7.6 517
7.7 544
7.8 545
7.9 531
8 575
8.1 561
8.2 567
8.3 563
8.4 537
8.5 534
8.6 522
8.7 531
8.8 520
8.9 531
9 534
9.1 548
9.2 548
9.3 560
9.4 566
9.5 579
9.6 584
9.7 559
9.8 567
9.9 548
10 538
10.1 506
10.2 486
10.3 497
10.4 493
10.5 530
10.6 530
10.7 506
10.8 513
10.9 557
11 557
11.1 536
11.2 562
11.3 585
11.4 507
11.5 513
11.6 520
11.7 500
11.8 529
11.9 507
12 568
12.1 556
12.2 533
12.3 528
12.4 556
12.5 562
12.6 499
12.7 573
12.8 566
12.9 532
13 585
13.1 582
13.2 546
13.3 549
13.4 580
13.5 598
13.6 580
13.7 587
13.8 570
13.9 599
14 580
14.1 598
14.2 607
14.3 615
14.4 674
14.5 624
14.6 654
14.7 660
14.8 660
14.9 694
15 647
15.1 672
15.2 681
15.3 686
15.4 734
15.5 636
15.6 713
15.7 722
15.8 735
15.9 713
16 768
16.1 667
16.2 796
16.3 786
16.4 803
16.5 781
16.6 772
16.7 836
16.8 840
16.9 916
17 1052
17.1 1271
17.2 979
17.3 880
17.4 910
17.5 889
17.6 906
17.7 1008
17.8 952
17.9 993
18 956
18.1 966
18.2 1011
18.3 1062
18.4 1060
18.5 1037
18.6 1025
18.7 1074
18.8 1103
18.9 1114
19 1106
19.1 1137
19.2 1171
19.3 1222
19.4 1230
19.5 1149
19.6 1244
19.7 1245
19.8 1284
19.9 1279
20 1267
20.1 1312
20.2 1321
20.3 1318
20.4 1334
20.5 1410
20.6 1435
20.7 1450
20.8 1397
20.9 1439
21 1461
21.1 1450
21.2 1460
21.3 1469
21.4 1498
21.5 1477
21.6 1516
21.7 1531
21.8 1506
21.9 1494
22 1500
22.1 1527
22.2 1568
22.3 1568
22.4 1521
22.5 1549
22.6 1507
22.7 1498
22.8 1527
22.9 1530
23 1554
23.1 1541
23.2 1479
23.3 1614
23.4 1547
23.5 1499
23.6 1509
23.7 1533
23.8 1510
23.9 1569
24 1544
24.1 1520
24.2 1494
24.3 1530
24.4 1517
24.5 1581
24.6 1625
24.7 1595
24.8 1520
24.9 1589
25 1494
25.1 1512
25.2 1574
25.3 1676
25.4 1806
25.5 1571
25.6 1485
25.7 1472
25.8 1481
25.9 1388
26 1420
26.1 1431
26.2 1477
26.3 1517
26.4 1430
26.5 1432
26.6 1381
26.7 1524
26.8 1463
26.9 1643
27 1633
27.1 1500
27.2 1369
27.3 1438
27.4 1365
27.5 1324
27.6 1382
27.7 1342
27.8 1419
27.9 1364
28 1289
28.1 1365
28.2 1313
28.3 1374
28.4 1311
28.5 1329
28.6 1298
28.7 1293
28.8 1323
28.9 1293
29 1255
29.1 1310
29.2 1334
29.3 1290
29.4 1294
29.5 1278
29.6 1245
29.7 1212
29.8 1205
29.9 1268
30 1207

File: 50-9.ASC
3 6615
3.06 5555
3.12 4487
3.18 3924
3.24 3277
3.3 2408
3.36 1861
3.42 1668
3.48 1578
3.54 1596
3.6 1719
3.66 1735
3.72 1776
3.78 1568
3.84 1401
3.9 1290
3.96 1183
4.02 1194
4.08 1122
4.14 1172
4.2 1111
4.26 1040
4.32 978
4.38 952
4.44 943
4.5 936
4.56 971
4.62 912
4.68 945
4.74 904
4.8 894
4.86 903
4.92 890
4.98 876
5.04 829
5.1 858
5.16 913
5.22 880
5.28 885
5.34 873
5.4 924
5.46 912
5.52 932
5.58 899
5.64 824
5.7 834
5.76 839
5.82 827
5.88 790
5.94 852
6 804
6.06 789
6.12 754
6.18 760
6.24 761
6.3 762
6.36 782
6.42 710
6.48 724
6.54 730
6.6 712
6.66 707
6.72 702
6.78 687
6.84 712
6.9 736
6.96 678
7.02 719
7.08 685
7.14 696
7.2 698
7.26 715
7.32 714
7.38 653
7.44 689
7.5 663
7.56 665
7.62 713
7.68 692
7.74 719
7.8 627
7.86 713
7.92 695
7.98 675
8.04 703
8.1 653
8.16 654
8.22 656
8.28 705
8.34 630
8.4 659
8.46 644
8.52 644
8.58 676
8.64 649
8.7 676
8.76 673
8.82 584
8.88 677
8.94 665
9 677
9.06 661
9.12 686
9.18 716
9.24 687
9.3 653
9.36 720
9.42 785
9.48 707
9.54 716
9.6 641
9.66 655
9.72 667
9.78 639
9.84 643
9.9 661
9.96 638
10.02 618
10.08 633
10.14 626
10.2 645
10.26 631
10.32 655
10.38 641
10.44 688
10.5 611
10.56 659
10.62 676
10.68 636
10.74 637
10.8 686
10.86 698
10.92 695
10.98 644
11.04 668
11.1 612
11.16 639
11.22 664
11.28 632
11.34 646
11.4 604
11.46 645
11.52 643
11.58 643
11.64 639
11.7 628
11.76 632
11.82 624
11.88 647
11.94 667
12 603
12.06 606
12.12 627
12.18 669
12.24 656
12.3 674
12.36 657
12.42 631
12.48 605
12.54 656
12.6 662
12.66 679
12.72 670
12.78 663
12.84 699
12.9 669
12.96 658
13.02 692
13.08 677
13.14 670
13.2 728
13.26 642
13.32 717
13.38 681
13.44 683
13.5 675
13.56 691
13.62 694
13.68 701
13.74 743
13.8 713
13.86 751
13.92 709
13.98 748
14.04 794
14.1 726
14.16 710
14.22 754
14.28 731
14.34 739
14.4 785
14.46 768
14.52 745
14.58 800
14.64 792
14.7 840
14.76 767
14.82 806
14.88 748
14.94 809
15 797
15.06 783
15.12 774
15.18 829
15.24 792
15.3 840
15.36 813
15.42 883
15.48 865
15.54 820
15.6 883
15.66 921
15.72 884
15.78 866
15.84 884
15.9 921
15.96 895
16.02 936
16.08 915
16.14 913
16.2 892
16.26 871
16.32 926
16.38 950
16.44 926
16.5 997
16.56 996
16.62 983
16.68 1009
16.74 1030
16.8 1071
16.86 1080
16.92 1245
16.98 1376
17.04 1369
17.1 1165
17.16 1122
17.22 1120
17.28 1078
17.34 1104
17.4 1156
17.46 1090
17.52 1113
17.58 1074
17.64 1137
17.7 1184
17.76 1177
17.82 1161
17.88 1114
17.94 1125
18 1220
18.06 1129
18.12 1216
18.18 1196
18.24 1193
18.3 1221
18.36 1274
18.42 1266
18.48 1232
18.54 1322
18.6 1318
18.66 1295
18.72 1400
18.78 1342
18.84 1339
18.9 1361
18.96 1327
19.02 1391
19.08 1435
19.14 1362
19.2 1424
19.26 1429
19.32 1432
19.38 1461
19.44 1481
19.5 1480
19.56 1445
19.62 1394
19.68 1469
19.74 1466
19.8 1488
19.86 1531
19.92 1548
19.98 1452
20 1534

File: 50-10.ASC
3 6057
3.06 4836
3.12 3908
3.18 3133
3.24 2673
3.3 2169
3.36 1746
3.42 1579
3.48 1405
3.54 1357
3.6 1252
3.66 1312
3.72 1274
3.78 1176
3.84 1181
3.9 1154
3.96 1166
4.02 1056
4.08 1072
4.14 1105
4.2 1078
4.26 998
4.32 1044
4.38 954
4.44 992
4.5 983
4.56 1008
4.62 977
4.68 967
4.74 962
4.8 1011
4.86 934
4.92 887
4.98 949
5.04 929
5.1 962
5.16 906
5.22 922
5.28 976
5.34 983
5.4 979
5.46 948
5.52 964
5.58 905
5.64 863
5.7 853
5.76 873
5.82 784
5.88 800
5.94 833
6 768
6.06 806
6.12 818
6.18 807
6.24 807
6.3 806
6.36 767
6.42 789
6.48 797
6.54 813
6.6 813
6.66 813
6.72 764
6.78 749
6.84 801
6.9 755
6.96 746
7.02 809
7.08 812
7.14 748
7.2 769
7.26 753
7.32 758
7.38 774
7.44 752
7.5 796
7.56 790
7.62 691
7.68 797
7.74 815
7.8 731
7.86 730
7.92 763
7.98 781
8.04 772
8.1 752
8.16 703
8.22 752
8.28 759
8.34 717
8.4 700
8.46 728
8.52 695
8.58 752
8.64 719
8.7 709
8.76 766
8.82 707
8.88 695
8.94 729
9 707
9.06 710
9.12 738
9.18 727
9.24 790
9.3 732
9.36 750
9.42 740
9.48 738
9.54 716
9.6 721
9.66 735
9.72 729
9.78 715
9.84 721
9.9 768
9.96 693
10.02 722
10.08 686
10.14 744
10.2 715
10.26 728
10.32 731
10.38 753
10.44 674
10.5 712
10.56 741
10.62 696
10.68 747
10.74 723
10.8 704
10.86 750
10.92 739
10.98 720
11.04 710
11.1 723
11.16 748
11.22 691
11.28 769
11.34 751
11.4 723
11.46 734
11.52 763
11.58 730
11.64 775
11.7 781
11.76 730
11.82 742
11.88 730
11.94 759
12 767
12.06 759
12.12 798
12.18 734
12.24 735
12.3 731
12.36 736
12.42 766
12.48 763
12.54 818
12.6 829
12.66 813
12.72 820
12.78 800
12.84 793
12.9 810
12.96 785
13.02 778
13.08 837
13.14 823
13.2 792
13.26 838
13.32 832
13.38 815
13.44 834
13.5 788
13.56 808
13.62 880
13.68 832
13.74 846
13.8 880
13.86 870
13.92 819
13.98 809
14.04 899
14.1 861
14.16 876
14.22 915
14.28 837
14.34 919
14.4 838
14.46 872
14.52 906
14.58 924
14.64 940
14.7 976
14.76 979
14.82 978
14.88 961
14.94 942
15 936
15.06 913
15.12 1025
15.18 1016
15.24 986
15.3 1002
15.36 1043
15.42 1032
15.48 1097
15.54 1075
15.6 1077
15.66 1040
15.72 1059
15.78 1099
15.84 1111
15.9 1120
15.96 1129
16.02 1136
16.08 1103
16.14 1134
16.2 1094
16.26 1150
16.32 1199
16.38 1174
16.44 1236
16.5 1174
16.56 1210
16.62 1183
16.68 1304
16.74 1245
16.8 1364
16.86 1390
16.92 1587
16.98 1880
17.04 1771
17.1 1357
17.16 1350
17.22 1362
17.28 1352
17.34 1318
17.4 1443
17.46 1346
17.52 1419
17.58 1417
17.64 1475
17.7 1481
17.76 1426
17.82 1383
17.88 1522
17.94 1551
18 1532
18.06 1547
18.12 1571
18.18 1531
18.24 1517
18.3 1555
18.36 1688
18.42 1662
18.48 1625
18.54 1673
18.6 1598
18.66 1644
18.72 1648
18.78 1672
18.84 1786
18.9 1729
18.96 1798
19.02 1758
19.08 1833
19.14 1809
19.2 1796
19.26 1744
19.32 1754
19.38 1896
19.44 1822
19.5 1842
19.56 1807
19.62 1899
19.68 1949
19.74 1990
19.8 1980
19.86 1918
19.92 1938
19.98 1921
20 2018