Folder: CPC-code/xrd-UiO-67/pxrddata (part 6)

File: 7-17.ASC
3 2075
3.06 1725
3.12 1515
3.18 1440
3.24 1432
3.3 1328
3.36 1324
3.42 1216
3.48 1216
3.54 1180
3.6 1162
3.66 1124
3.72 1151
3.78 1109
3.84 1043
3.9 1102
3.96 1052
4.02 1013
4.08 995
4.14 946
4.2 978
4.26 976
4.32 924
4.38 932
4.44 861
4.5 881
4.56 856
4.62 861
4.68 874
4.74 854
4.8 893
4.86 854
4.92 876
4.98 919
5.04 932
5.1 919
5.16 882
5.22 1034
5.28 992
5.34 984
5.4 1066
5.46 1066
5.52 1104
5.58 1147
5.64 1114
5.7 1142
5.76 1143
5.82 1101
5.88 1053
5.94 976
6 933
6.06 921
6.12 856
6.18 809
6.24 799
6.3 792
6.36 757
6.42 717
6.48 717
6.54 686
6.6 652
6.66 702
6.72 681
6.78 660
6.84 669
6.9 637
6.96 637
7.02 613
7.08 575
7.14 600
7.2 585
7.26 601
7.32 541
7.38 599
7.44 601
7.5 585
7.56 564
7.62 592
7.68 585
7.74 581
7.8 593
7.86 534
7.92 524
7.98 548
8.04 548
8.1 538
8.16 559
8.22 523
8.28 535
8.34 542
8.4 560
8.46 550
8.52 556
8.58 566
8.64 547
8.7 508
8.76 561
8.82 531
8.88 571
8.94 547
9 574
9.06 533
9.12 580
9.18 578
9.24 583
9.3 665
9.36 623
9.42 610
9.48 602
9.54 575
9.6 550
9.66 555
9.72 527
9.78 573
9.84 567
9.9 535
9.96 497
10.02 545
10.08 529
10.14 555
10.2 549
10.26 563
10.32 493
10.38 522
10.44 506
10.5 488
10.56 526
10.62 571
10.68 513
10.74 549
10.8 475
10.86 528
10.92 517
10.98 563
11.04 566
11.1 554
11.16 537
11.22 565
11.28 521
11.34 541
11.4 511
11.46 521
11.52 522
11.58 516
11.64 510
11.7 497
11.76 515
11.82 465
11.88 480
11.94 492
12 470
12.06 484
12.12 446
12.18 488
12.24 455
12.3 475
12.36 487
12.42 479
12.48 484
12.54 469
12.6 461
12.66 450
12.72 501
12.78 503
12.84 472
12.9 494
12.96 490
13.02 467
13.08 452
13.14 472
13.2 511
13.26 486
13.32 476
13.38 509
13.44 500
13.5 470
13.56 480
13.62 489
13.68 511
13.74 460
13.8 509
13.86 529
13.92 493
13.98 471
14.04 527
14.1 517
14.16 544
14.22 521
14.28 495
14.34 512
14.4 501
14.46 531
14.52 534
14.58 510
14.64 523
14.7 555
14.76 551
14.82 572
14.88 562
14.94 590
15 507
15.06 563
15.12 530
15.18 529
15.24 582
15.3 550
15.36 554
15.42 559
15.48 553
15.54 565
15.6 552
15.66 553
15.72 566
15.78 539
15.84 631
15.9 565
15.96 618
16.02 568
16.08 597
16.14 594
16.2 583
16.26 614
16.32 594
16.38 663
16.44 629
16.5 616
16.56 649
16.62 684
16.68 622
16.74 715
16.8 658
16.86 656
16.92 673
16.98 779
17.04 915
17.1 1066
17.16 1167
17.22 943
17.28 712
17.34 679
17.4 684
17.46 732
17.52 675
17.58 731
17.64 730
17.7 696
17.76 688
17.82 727
17.88 738
17.94 734
18 703
18.06 735
18.12 758
18.18 721
18.24 776
18.3 726
18.36 721
18.42 748
18.48 734
18.54 797
18.6 790
18.66 765
18.72 778
18.78 784
18.84 841
18.9 808
18.96 808
19.02 885
19.08 848
19.14 849
19.2 811
19.26 864
19.32 866
19.38 914
19.44 858
19.5 906
19.56 910
19.62 902
19.68 896
19.74 930
19.8 898
19.86 941
19.92 872
19.98 959
20 920

File: 7-18.ASC
3 2467
3.06 2045
3.12 1865
3.18 1781
3.24 1775
3.3 1721
3.36 1745
3.42 1622
3.48 1631
3.54 1509
3.6 1581
3.66 1563
3.72 1421
3.78 1433
3.84 1401
3.9 1356
3.96 1382
4.02 1347
4.08 1319
4.14 1251
4.2 1253
4.26 1180
4.32 1178
4.38 1148
4.44 1171
4.5 1129
4.56 1123
4.62 1124
4.68 1140
4.74 1085
4.8 1052
4.86 1022
4.92 1019
4.98 955
5.04 1072
5.1 1044
5.16 1021
5.22 989
5.28 963
5.34 996
5.4 948
5.46 980
5.52 963
5.58 942
5.64 966
5.7 971
5.76 919
5.82 957
5.88 924
5.94 996
6 957
6.06 923
6.12 891
6.18 924
6.24 949
6.3 892
6.36 965
6.42 890
6.48 935
6.54 939
6.6 896
6.66 915
6.72 915
6.78 887
6.84 906
6.9 931
6.96 939
7.02 911
7.08 898
7.14 902
7.2 880
7.26 853
7.32 882
7.38 958
7.44 877
7.5 857
7.56 894
7.62 894
7.68 897
7.74 889
7.8 934
7.86 918
7.92 898
7.98 890
8.04 900
8.1 880
8.16 853
8.22 828
8.28 882
8.34 860
8.4 869
8.46 881
8.52 841
8.58 875
8.64 886
8.7 821
8.76 840
8.82 845
8.88 840
8.94 880
9 807
9.06 882
9.12 848
9.18 862
9.24 836
9.3 822
9.36 791
9.42 810
9.48 864
9.54 837
9.6 827
9.66 850
9.72 831
9.78 860
9.84 802
9.9 787
9.96 819
10.02 821
10.08 857
10.14 831
10.2 807
10.26 800
10.32 756
10.38 809
10.44 785
10.5 791
10.56 777
10.62 765
10.68 821
10.74 800
10.8 771
10.86 770
10.92 757
10.98 805
11.04 809
11.1 766
11.16 796
11.22 805
11.28 797
11.34 809
11.4 794
11.46 760
11.52 732
11.58 758
11.64 781
11.7 778
11.76 748
11.82 789
11.88 780
11.94 816
12 779
12.06 759
12.12 780
12.18 760
12.24 817
12.3 832
12.36 804
12.42 774
12.48 814
12.54 777
12.6 749
12.66 754
12.72 794
12.78 815
12.84 844
12.9 798
12.96 805
13.02 864
13.08 812
13.14 833
13.2 831
13.26 840
13.32 890
13.38 851
13.44 853
13.5 837
13.56 884
13.62 821
13.68 892
13.74 782
13.8 788
13.86 854
13.92 856
13.98 832
14.04 820
14.1 856
14.16 812
14.22 847
14.28 849
14.34 857
14.4 833
14.46 864
14.52 889
14.58 894
14.64 843
14.7 879
14.76 852
14.82 914
14.88 887
14.94 864
15 901
15.06 896
15.12 884
15.18 884
15.24 861
15.3 944
15.36 908
15.42 916
15.48 933
15.54 882
15.6 938
15.66 949
15.72 919
15.78 917
15.84 936
15.9 996
15.96 990
16.02 942
16.08 966
16.14 976
16.2 951
16.26 1015
16.32 979
16.38 965
16.44 1023
16.5 1016
16.56 987
16.62 1089
16.68 1144
16.74 1188
16.8 1260
16.86 1470
16.92 1947
16.98 2499
17.04 2374
17.1 1705
17.16 1349
17.22 1180
17.28 1162
17.34 1124
17.4 1104
17.46 1120
17.52 1050
17.58 1145
17.64 1124
17.7 1205
17.76 1143
17.82 1222
17.88 1190
17.94 1247
18 1264
18.06 1193
18.12 1156
18.18 1214
18.24 1175
18.3 1233
18.36 1221
18.42 1282
18.48 1290
18.54 1294
18.6 1283
18.66 1291
18.72 1344
18.78 1386
18.84 1313
18.9 1338
18.96 1343
19.02 1303
19.08 1328
19.14 1269
19.2 1347
19.26 1367
19.32 1418
19.38 1340
19.44 1399
19.5 1364
19.56 1462
19.62 1472
19.68 1436
19.74 1477
19.8 1489
19.86 1482
19.92 1561
19.98 1521
20 1480

File: 7-20.ASC
3 2296
3.06 1858
3.12 1733
3.18 1605
3.24 1576
3.3 1463
3.36 1440
3.42 1392
3.48 1418
3.54 1367
3.6 1316
3.66 1301
3.72 1230
3.78 1233
3.84 1158
3.9 1175
3.96 1105
4.02 1168
4.08 1104
4.14 1048
4.2 1029
4.26 1002
4.32 1079
4.38 976
4.44 988
4.5 1023
4.56 936
4.62 960
4.68 916
4.74 945
4.8 951
4.86 919
4.92 951
4.98 975
5.04 947
5.1 1041
5.16 1054
5.22 1038
5.28 1023
5.34 1087
5.4 1116
5.46 1208
5.52 1242
5.58 1240
5.64 1244
5.7 1190
5.76 1268
5.82 1233
5.88 1201
5.94 1082
6 961
6.06 906
6.12 921
6.18 803
6.24 861
6.3 874
6.36 817
6.42 802
6.48 855
6.54 743
6.6 741
6.66 785
6.72 796
6.78 795
6.84 790
6.9 765
6.96 789
7.02 748
7.08 735
7.14 756
7.2 736
7.26 773
7.32 736
7.38 741
7.44 739
7.5 731
7.56 748
7.62 713
7.68 764
7.74 768
7.8 747
7.86 745
7.92 731
7.98 726
8.04 729
8.1 776
8.16 756
8.22 722
8.28 726
8.34 713
8.4 726
8.46 695
8.52 705
8.58 734
8.64 693
8.7 731
8.76 738
8.82 735
8.88 760
8.94 717
9 731
9.06 755
9.12 813
9.18 815
9.24 801
9.3 833
9.36 849
9.42 792
9.48 759
9.54 751
9.6 713
9.66 709
9.72 725
9.78 756
9.84 720
9.9 712
9.96 715
10.02 728
10.08 676
10.14 765
10.2 683
10.26 775
10.32 684
10.38 651
10.44 721
10.5 692
10.56 727
10.62 714
10.68 719
10.74 718
10.8 736
10.86 748
10.92 803
10.98 744
11.04 748
11.1 719
11.16 709
11.22 701
11.28 719
11.34 710
11.4 718
11.46 662
11.52 704
11.58 709
11.64 689
11.7 670
11.76 674
11.82 670
11.88 683
11.94 670
12 693
12.06 654
12.12 678
12.18 691
12.24 678
12.3 712
12.36 708
12.42 689
12.48 660
12.54 696
12.6 695
12.66 667
12.72 693
12.78 687
12.84 678
12.9 643
12.96 700
13.02 715
13.08 707
13.14 689
13.2 709
13.26 692
13.32 692
13.38 721
13.44 770
13.5 697
13.56 730
13.62 709
13.68 750
13.74 721
13.8 757
13.86 726
13.92 755
13.98 698
14.04 710
14.1 733
14.16 773
14.22 741
14.28 757
14.34 746
14.4 712
14.46 754
14.52 763
14.58 773
14.64 780
14.7 817
14.76 779
14.82 816
14.88 729
14.94 780
15 803
15.06 796
15.12 845
15.18 833
15.24 817
15.3 817
15.36 795
15.42 784
15.48 841
15.54 812
15.6 852
15.66 863
15.72 843
15.78 894
15.84 803
15.9 812
15.96 859
16.02 855
16.08 826
16.14 850
16.2 907
16.26 819
16.32 886
16.38 889
16.44 925
16.5 883
16.56 928
16.62 876
16.68 851
16.74 911
16.8 914
16.86 876
16.92 938
16.98 912
17.04 919
17.1 926
17.16 958
17.22 926
17.28 892
17.34 1007
17.4 964
17.46 960
17.52 1045
17.58 967
17.64 1016
17.7 987
17.76 970
17.82 1053
17.88 980
17.94 971
18 1028
18.06 1024
18.12 1012
18.18 1084
18.24 985
18.3 991
18.36 1045
18.42 1003
18.48 1085
18.54 1045
18.6 1073
18.66 1114
18.72 1042
18.78 1085
18.84 1094
18.9 1055
18.96 1091
19.02 1115
19.08 1161
19.14 1156
19.2 1101
19.26 1160
19.32 1145
19.38 1158
19.44 1156
19.5 1176
19.56 1189
19.62 1155
19.68 1185
19.74 1168
19.8 1185
19.86 1134
19.92 1224
19.98 1168
20 1174

File: 7-21.ASC
3 2214
3.06 1691
3.12 1577
3.18 1469
3.24 1459
3.3 1317
3.36 1374
3.42 1292
3.48 1311
3.54 1218
3.6 1214
3.66 1156
3.72 1160
3.78 1103
3.84 1078
3.9 1081
3.96 1050
4.02 999
4.08 989
4.14 895
4.2 938
4.26 951
4.32 931
4.38 890
4.44 881
4.5 840
4.56 832
4.62 828
4.68 846
4.74 813
4.8 831
4.86 819
4.92 788
4.98 827
5.04 754
5.1 788
5.16 809
5.22 785
5.28 756
5.34 763
5.4 705
5.46 687
5.52 735
5.58 755
5.64 791
5.7 732
5.76 753
5.82 711
5.88 750
5.94 741
6 748
6.06 706
6.12 726
6.18 719
6.24 731
6.3 749
6.36 719
6.42 691
6.48 699
6.54 721
6.6 711
6.66 713
6.72 658
6.78 715
6.84 704
6.9 688
6.96 702
7.02 696
7.08 711
7.14 701
7.2 693
7.26 710
7.32 640
7.38 684
7.44 708
7.5 681
7.56 680
7.62 644
7.68 661
7.74 693
7.8 686
7.86 698
7.92 654
7.98 651
8.04 691
8.1 732
8.16 659
8.22 680
8.28 686
8.34 710
8.4 643
8.46 630
8.52 705
8.58 655
8.64 635
8.7 653
8.76 675
8.82 634
8.88 629
8.94 648
9 670
9.06 667
9.12 637
9.18 589
9.24 664
9.3 621
9.36 652
9.42 655
9.48 657
9.54 646
9.6 660
9.66 672
9.72 631
9.78 612
9.84 636
9.9 647
9.96 627
10.02 565
10.08 623
10.14 648
10.2 619
10.26 635
10.32 580
10.38 656
10.44 595
10.5 620
10.56 643
10.62 621
10.68 571
10.74 602
10.8 587
10.86 596
10.92 589
10.98 611
11.04 601
11.1 611
11.16 622
11.22 592
11.28 588
11.34 609
11.4 628
11.46 607
11.52 581
11.58 620
11.64 602
11.7 593
11.76 618
11.82 565
11.88 625
11.94 608
12 578
12.06 613
12.12 631
12.18 578
12.24 589
12.3 580
12.36 634
12.42 574
12.48 601
12.54 654
12.6 620
12.66 645
12.72 577
12.78 616
12.84 653
12.9 650
12.96 599
13.02 609
13.08 623
13.14 633
13.2 582
13.26 620
13.32 613
13.38 658
13.44 637
13.5 641
13.56 674
13.62 634
13.68 654
13.74 635
13.8 689
13.86 632
13.92 620
13.98 647
14.04 651
14.1 668
14.16 688
14.22 644
14.28 637
14.34 668
14.4 656
14.46 669
14.52 706
14.58 697
14.64 678
14.7 675
14.76 699
14.82 703
14.88 698
14.94 720
15 715
15.06 700
15.12 695
15.18 725
15.24 798
15.3 741
15.36 739
15.42 788
15.48 748
15.54 756
15.6 721
15.66 785
15.72 738
15.78 782
15.84 783
15.9 796
15.96 765
16.02 725
16.08 768
16.14 824
16.2 808
16.26 825
16.32 768
16.38 805
16.44 858
16.5 801
16.56 879
16.62 921
16.68 877
16.74 937
16.8 1004
16.86 1063
16.92 1190
16.98 1424
17.04 1942
17.1 2224
17.16 1948
17.22 1219
17.28 1006
17.34 994
17.4 981
17.46 953
17.52 979
17.58 999
17.64 991
17.7 1002
17.76 1025
17.82 1042
17.88 1031
17.94 1059
18 1041
18.06 1036
18.12 1079
18.18 1075
18.24 1029
18.3 1072
18.36 1057
18.42 1105
18.48 1101
18.54 1097
18.6 1119
18.66 1107
18.72 1195
18.78 1138
18.84 1130
18.9 1174
18.96 1217
19.02 1188
19.08 1220
19.14 1219
19.2 1227
19.26 1209
19.32 1299
19.38 1219
19.44 1282
19.5 1311
19.56 1242
19.62 1267
19.68 1275
19.74 1311
19.8 1325
19.86 1313
19.92 1350
19.98 1329
20 1404

File: 7-22.ASC
3 2381
3.06 1955
3.12 1677
3.18 1618
3.24 1466
3.3 1515
3.36 1350
3.42 1374
3.48 1336
3.54 1288
3.6 1264
3.66 1217
3.72 1199
3.78 1124
3.84 1082
3.9 1082
3.96 1019
4.02 1038
4.08 902
4.14 912
4.2 933
4.26 894
4.32 895
4.38 905
4.44 897
4.5 892
4.56 824
4.62 838
4.68 785
4.74 792
4.8 767
4.86 818
4.92 778
4.98 723
5.04 740
5.1 719
5.16 775
5.22 707
5.28 761
5.34 731
5.4 725
5.46 698
5.52 785
5.58 753
5.64 729
5.7 689
5.76 731
5.82 726
5.88 722
5.94 682
6 688
6.06 707
6.12 695
6.18 721
6.24 718
6.3 710
6.36 691
6.42 701
6.48 659
6.54 692
6.6 671
6.66 650
6.72 728
6.78 678
6.84 689
6.9 710
6.96 700
7.02 688
7.08 651
7.14 671
7.2 676
7.26 678
7.32 724
7.38 660
7.44 719
7.5 715
7.56 692
7.62 665
7.68 654
7.74 665
7.8 664
7.86 637
7.92 677
7.98 699
8.04 648
8.1 697
8.16 663
8.22 691
8.28 673
8.34 660
8.4 644
8.46 666
8.52 661
8.58 673
8.64 667
8.7 635
8.76 637
8.82 620
8.88 601
8.94 658
9 650
9.06 655
9.12 660
9.18 612
9.24 609
9.3 673
9.36 646
9.42 628
9.48 657
9.54 650
9.6 639
9.66 636
9.72 635
9.78 619
9.84 608
9.9 589
9.96 599
10.02 624
10.08 613
10.14 643
10.2 641
10.26 604
10.32 587
10.38 617
10.44 594
10.5 583
10.56 624
10.62 615
10.68 591
10.74 628
10.8 607
10.86 591
10.92 571
10.98 640
11.04 623
11.1 640
11.16 604
11.22 661
11.28 653
11.34 594
11.4 627
11.46 625
11.52 646
11.58 592
11.64 642
11.7 600
11.76 627
11.82 652
11.88 670
11.94 632
12 625
12.06 586
12.12 614
12.18 687
12.24 662
12.3 608
12.36 610
12.42 605
12.48 644
12.54 618
12.6 662
12.66 611
12.72 676
12.78 625
12.84 664
12.9 706
12.96 698
13.02 634
13.08 658
13.14 647
13.2 642
13.26 662
13.32 669
13.38 713
13.44 667
13.5 678
13.56 653
13.62 625
13.68 666
13.74 659
13.8 679
13.86 697
13.92 686
13.98 653
14.04 720
14.1 699
14.16 716
14.22 723
14.28 662
14.34 691
14.4 694
14.46 690
14.52 727
14.58 754
14.64 710
14.7 749
14.76 694
14.82 720
14.88 730
14.94 721
15 722
15.06 700
15.12 744
15.18 817
15.24 781
15.3 793
15.36 792
15.42 759
15.48 762
15.54 794
15.6 727
15.66 781
15.72 787
15.78 856
15.84 846
15.9 816
15.96 832
16.02 803
16.08 786
16.14 822
16.2 823
16.26 825
16.32 825
16.38 841
16.44 882
16.5 964
16.56 895
16.62 877
16.68 955
16.74 985
16.8 1023
16.86 1136
16.92 1304
16.98 1876
17.04 2504
17.1 2003
17.16 1193
17.22 1037
17.28 989
17.34 953
17.4 979
17.46 975
17.52 1042
17.58 1059
17.64 1033
17.7 968
17.76 1006
17.82 1012
17.88 1017
17.94 1014
18 1067
18.06 1050
18.12 1062
18.18 1086
18.24 1122
18.3 1066
18.36 1064
18.42 1107
18.48 1158
18.54 1132
18.6 1090
18.66 1121
18.72 1143
18.78 1109
18.84 1202
18.9 1231
18.96 1161
19.02 1200
19.08 1216
19.14 1235
19.2 1226
19.26 1203
19.32 1263
19.38 1221
19.44 1281
19.5 1254
19.56 1279
19.62 1321
19.68 1351
19.74 1369
19.8 1368
19.86 1318
19.92 1376
19.98 1378
20 1385

File: 7-23.ASC
3 2253
3.06 1811
3.12 1504
3.18 1465
3.24 1398
3.3 1285
3.36 1312
3.42 1268
3.48 1239
3.54 1173
3.6 1134
3.66 1149
3.72 1106
3.78 1157
3.84 1043
3.9 1113
3.96 1051
4.02 1020
4.08 1033
4.14 1045
4.2 1093
4.26 1066
4.32 1043
4.38 1018
4.44 1072
4.5 1009
4.56 1033
4.62 999
4.68 1076
4.74 1014
4.8 1020
4.86 1068
4.92 1044
4.98 1001
5.04 1074
5.1 1099
5.16 1040
5.22 998
5.28 1049
5.34 1086
5.4 1082
5.46 1049
5.52 1099
5.58 1087
5.64 1069
5.7 1001
5.76 1092
5.82 1072
5.88 1050
5.94 1007
6 1016
6.06 988
6.12 988
6.18 1003
6.24 963
6.3 959
6.36 955
6.42 922
6.48 918
6.54 903
6.6 904
6.66 855
6.72 763
6.78 848
6.84 781
6.9 780
6.96 731
7.02 741
7.08 739
7.14 752
7.2 723
7.26 675
7.32 716
7.38 660
7.44 692
7.5 662
7.56 596
7.62 638
7.68 645
7.74 590
7.8 621
7.86 632
7.92 612
7.98 619
8.04 562
8.1 553
8.16 609
8.22 596
8.28 617
8.34 609
8.4 556
8.46 603
8.52 569
8.58 563
8.64 528
8.7 560
8.76 593
8.82 579
8.88 570
8.94 558
9 561
9.06 566
9.12 558
9.18 583
9.24 558
9.3 581
9.36 589
9.42 550
9.48 535
9.54 569
9.6 532
9.66 573
9.72 525
9.78 516
9.84 510
9.9 519
9.96 537
10.02 559
10.08 502
10.14 515
10.2 514
10.26 558
10.32 517
10.38 501
10.44 537
10.5 584
10.56 520
10.62 503
10.68 485
10.74 520
10.8 535
10.86 525
10.92 541
10.98 477
11.04 502
11.1 540
11.16 530
11.22 540
11.28 529
11.34 536
11.4 538
11.46 526
11.52 547
11.58 502
11.64 510
11.7 548
11.76 496
11.82 537
11.88 491
11.94 505
12 508
12.06 511
12.12 487
12.18 486
12.24 505
12.3 505
12.36 442
12.42 495
12.48 498
12.54 461
12.6 495
12.66 476
12.72 489
12.78 482
12.84 513
12.9 508
12.96 518
13.02 486
13.08 520
13.14 476
13.2 530
13.26 534
13.32 489
13.38 495
13.44 508
13.5 532
13.56 460
13.62 513
13.68 499
13.74 493
13.8 498
13.86 498
13.92 508
13.98 519
14.04 462
14.1 501
14.16 509
14.22 488
14.28 512
14.34 518
14.4 515
14.46 526
14.52 502
14.58 521
14.64 532
14.7 576
14.76 562
14.82 519
14.88 494
14.94 543
15 550
15.06 511
15.12 504
15.18 564
15.24 524
15.3 525
15.36 550
15.42 543
15.48 598
15.54 557
15.6 561
15.66 535
15.72 547
15.78 567
15.84 597
15.9 567
15.96 573
16.02 600
16.08 535
16.14 568
16.2 594
16.26 605
16.32 592
16.38 557
16.44 606
16.5 597
16.56 610
16.62 591
16.68 642
16.74 629
16.8 616
16.86 631
16.92 674
16.98 633
17.04 693
17.1 651
17.16 679
17.22 677
17.28 672
17.34 650
17.4 652
17.46 658
17.52 727
17.58 721
17.64 660
17.7 714
17.76 726
17.82 685
17.88 739
17.94 696
18 709
18.06 705
18.12 748
18.18 722
18.24 773
18.3 755
18.36 781
18.42 781
18.48 763
18.54 759
18.6 813
18.66 738
18.72 744
18.78 767
18.84 787
18.9 802
18.96 764
19.02 787
19.08 865
19.14 832
19.2 819
19.26 863
19.32 859
19.38 866
19.44 856
19.5 797
19.56 885
19.62 840
19.68 867
19.74 849
19.8 852
19.86 837
19.92 897
19.98 883
20 855

File: 7-24.ASC
3 2412
3.06 1908
3.12 1682
3.18 1674
3.24 1567
3.3 1465
3.36 1476
3.42 1426
3.48 1418
3.54 1317
3.6 1316
3.66 1273
3.72 1279
3.78 1237
3.84 1190
3.9 1277
3.96 1165
4.02 1114
4.08 1202
4.14 1172
4.2 1114
4.26 1144
4.32 1134
4.38 1076
4.44 1185
4.5 1110
4.56 1107
4.62 1143
4.68 1164
4.74 1147
4.8 1172
4.86 1192
4.92 1190
4.98 1298
5.04 1335
5.1 1382
5.16 1409
5.22 1609
5.28 1613
5.34 1681
5.4 1775
5.46 2029
5.52 2238
5.58 2617
5.64 3015
5.7 3528
5.76 3914
5.82 3067
5.88 2085
5.94 1664
6 1531
6.06 1458
6.12 1389
6.18 1416
6.24 1433
6.3 1503
6.36 1541
6.42 1554
6.48 1776
6.54 1959
6.6 2149
6.66 2230
6.72 1696
6.78 1283
6.84 1170
6.9 1109
6.96 1129
7.02 1143
7.08 1108
7.14 1136
7.2 1038
7.26 1068
7.32 1097
7.38 1076
7.44 1027
7.5 1028
7.56 990
7.62 1006
7.68 1013
7.74 930
7.8 1008
7.86 961
7.92 943
7.98 945
8.04 952
8.1 928
8.16 932
8.22 932
8.28 928
8.34 897
8.4 890
8.46 948
8.52 881
8.58 919
8.64 861
8.7 921
8.76 893
8.82 957
8.88 992
8.94 955
9 989
9.06 1067
9.12 1089
9.18 1274
9.24 1413
9.3 1596
9.36 1978
9.42 1707
9.48 1287
9.54 1093
9.6 1054
9.66 1041
9.72 977
9.78 966
9.84 965
9.9 1009
9.96 902
10.02 909
10.08 992
10.14 921
10.2 960
10.26 959
10.32 933
10.38 970
10.44 968
10.5 1007
10.56 1049
10.62 1069
10.68 1109
10.74 1173
10.8 1231
10.86 1313
10.92 1609
10.98 1733
11.04 1517
11.1 1171
11.16 1152
11.22 1111
11.28 1146
11.34 1210
11.4 1202
11.46 1331
11.52 1265
11.58 1106
11.64 975
11.7 1018
11.76 1006
11.82 966
11.88 1017
11.94 998
12 973
12.06 960
12.12 943
12.18 961
12.24 921
12.3 958
12.36 956
12.42 1011
12.48 1003
12.54 993
12.6 957
12.66 991
12.72 999
12.78 930
12.84 1026
12.9 1001
12.96 1036
13.02 1002
13.08 1078
13.14 1089
13.2 1124
13.26 1183
13.32 1149
13.38 1072
13.44 1118
13.5 1080
13.56 1057
13.62 1049
13.68 1098
13.74 1135
13.8 1079
13.86 1157
13.92 1141
13.98 1133
14.04 1225
14.1 1194
14.16 1149
14.22 1239
14.28 1240
14.34 1300
14.4 1390
14.46 1356
14.52 1314
14.58 1302
14.64 1274
14.7 1274
14.76 1273
14.82 1253
14.88 1280
14.94 1280
15 1317
15.06 1344
15.12 1325
15.18 1363
15.24 1350
15.3 1323
15.36 1338
15.42 1396
15.48 1455
15.54 1432
15.6 1375
15.66 1402
15.72 1484
15.78 1412
15.84 1435
15.9 1489
15.96 1501
16.02 1556
16.08 1505
16.14 1582
16.2 1620
16.26 1507
16.32 1549
16.38 1603
16.44 1572
16.5 1612
16.56 1608
16.62 1639
16.68 1640
16.74 1725
16.8 1738
16.86 1766
16.92 1784
16.98 1764
17.04 1883
17.1 1849
17.16 1894
17.22 2004
17.28 2002
17.34 1902
17.4 1880
17.46 1891
17.52 1927
17.58 1951
17.64 1977
17.7 1996
17.76 1896
17.82 2009
17.88 1951
17.94 1992
18 2054
18.06 2010
18.12 2140
18.18 2039
18.24 2104
18.3 2080
18.36 2110
18.42 2166
18.48 2072
18.54 2215
18.6 2196
18.66 2203
18.72 2208
18.78 2271
18.84 2200
18.9 2253
18.96 2364
19.02 2315
19.08 2308
19.14 2320
19.2 2470
19.26 2402
19.32 2396
19.38 2419
19.44 2516
19.5 2590
19.56 2752
19.62 2803
19.68 2711
19.74 2663
19.8 2818
19.86 2801
19.92 2884
19.98 2667
20 2574

File: 7-28.ASC
3 2008
3.06 1648
3.12 1428
3.18 1401
3.24 1344
3.3 1335
3.36 1222
3.42 1245
3.48 1119
3.54 1119
3.6 1087
3.66 1115
3.72 1097
3.78 1102
3.84 1028
3.9 1035
3.96 1013
4.02 995
4.08 1030
4.14 964
4.2 927
4.26 955
4.32 948
4.38 908
4.44 969
4.5 880
4.56 910
4.62 940
4.68 926
4.74 925
4.8 937
4.86 939
4.92 889
4.98 984
5.04 945
5.1 935
5.16 971
5.22 970
5.28 961
5.34 981
5.4 1015
5.46 1037
5.52 1016
5.58 995
5.64 1012
5.7 1035
5.76 1060
5.82 1041
5.88 1047
5.94 978
6 1042
6.06 1032
6.12 1045
6.18 1011
6.24 1032
6.3 992
6.36 1008
6.42 1036
6.48 1011
6.54 926
6.6 990
6.66 941
6.72 928
6.78 871
6.84 895
6.9 865
6.96 812
7.02 827
7.08 854
7.14 860
7.2 831
7.26 828
7.32 748
7.38 764
7.44 788
7.5 759
7.56 752
7.62 770
7.68 768
7.74 749
7.8 708
7.86 681
7.92 718
7.98 732
8.04 733
8.1 738
8.16 718
8.22 724
8.28 664
8.34 738
8.4 679
8.46 742
8.52 689
8.58 713
8.64 662
8.7 744
8.76 712
8.82 695
8.88 654
8.94 665
9 671
9.06 672
9.12 654
9.18 708
9.24 702
9.3 670
9.36 709
9.42 692
9.48 678
9.54 637
9.6 644
9.66 748
9.72 689
9.78 691
9.84 680
9.9 696
9.96 683
10.02 730
10.08 689
10.14 726
10.2 689
10.26 710
10.32 689
10.38 707
10.44 726
10.5 703
10.56 704
10.62 749
10.68 748
10.74 726
10.8 743
10.86 692
10.92 767
10.98 721
11.04 731
11.1 702
11.16 748
11.22 770
11.28 780
11.34 767
11.4 771
11.46 740
11.52 790
11.58 765
11.64 794
11.7 753
11.76 773
11.82 806
11.88 769
11.94 810
12 753
12.06 817
12.12 780
12.18 733
12.24 757
12.3 800
12.36 780
12.42 749
12.48 795
12.54 773
12.6 833
12.66 789
12.72 809
12.78 809
12.84 790
12.9 759
12.96 822
13.02 824
13.08 850
13.14 829
13.2 839
13.26 825
13.32 776
13.38 805
13.44 886
13.5 867
13.56 795
13.62 815
13.68 845
13.74 828
13.8 898
13.86 891
13.92 815
13.98 899
14.04 882
14.1 912
14.16 869
14.22 859
14.28 890
14.34 915
14.4 888
14.46 945
14.52 961
14.58 934
14.64 984
14.7 950
14.76 965
14.82 979
14.88 976
14.94 963
15 990
15.06 1006
15.12 1010
15.18 995
15.24 983
15.3 1063
15.36 1067
15.42 1052
15.48 1030
15.54 1081
15.6 1145
15.66 1134
15.72 1125
15.78 1111
15.84 1094
15.9 1180
15.96 1173
16.02 1205
16.08 1181
16.14 1190
16.2 1196
16.26 1178
16.32 1236
16.38 1284
16.44 1290
16.5 1255
16.56 1317
16.62 1262
16.68 1363
16.74 1403
16.8 1358
16.86 1415
16.92 1399
16.98 1501
17.04 1471
17.1 1463
17.16 1472
17.22 1475
17.28 1513
17.34 1527
17.4 1495
17.46 1522
17.52 1596
17.58 1573
17.64 1559
17.7 1621
17.76 1564
17.82 1701
17.88 1687
17.94 1689
18 1679
18.06 1722
18.12 1722
18.18 1723
18.24 1822
18.3 1781
18.36 1813
18.42 1759
18.48 1769
18.54 1800
18.6 1904
18.66 1906
18.72 1922
18.78 1861
18.84 1958
18.9 1880
18.96 1924
19.02 1976
19.08 1903
19.14 2020
19.2 2003
19.26 1969
19.32 1927
19.38 2017
19.44 1928
19.5 2031
19.56 2043
19.62 2005
19.68 2000
19.74 2010
19.8 2069
19.86 2021
19.92 2068
19.98 2079
20 2033

File: 7-29.ASC
3 1971
3.06 1635
3.12 1415
3.18 1319
3.24 1294
3.3 1278
3.36 1230
3.42 1176
3.48 1132
3.54 1168
3.6 1040
3.66 1045
3.72 1027
3.78 984
3.84 990
3.9 989
3.96 994
4.02 928
4.08 901
4.14 941
4.2 914
4.26 839
4.32 873
4.38 840
4.44 848
4.5 797
4.56 864
4.62 859
4.68 820
4.74 933
4.8 887
4.86 869
4.92 914
4.98 931
5.04 958
5.1 938
5.16 987
5.22 1061
5.28 1120
5.34 1248
5.4 1306
5.46 1369
5.52 1564
5.58 1608
5.64 1677
5.7 1711
5.76 1783
5.82 1754
5.88 1647
5.94 1572
6 1414
6.06 1375
6.12 1141
6.18 1103
6.24 1019
6.3 998
6.36 934
6.42 961
6.48 934
6.54 940
6.6 920
6.66 934
6.72 889
6.78 860
6.84 801
6.9 788
6.96 717
7.02 744
7.08 752
7.14 672
7.2 705
7.26 694
7.32 684
7.38 704
7.44 642
7.5 663
7.56 663
7.62 661
7.68 679
7.74 661
7.8 609
7.86 682
7.92 663
7.98 679
8.04 628
8.1 632
8.16 620
8.22 665
8.28 626
8.34 625
8.4 682
8.46 646
8.52 653
8.58 664
8.64 669
8.7 705
8.76 645
8.82 680
8.88 678
8.94 654
9 704
9.06 683
9.12 746
9.18 781
9.24 820
9.3 852
9.36 848
9.42 870
9.48 880
9.54 868
9.6 840
9.66 770
9.72 760
9.78 714
9.84 666
9.9 710
9.96 666
10.02 711
10.08 742
10.14 666
10.2 668
10.26 783
10.32 757
10.38 709
10.44 694
10.5 733
10.56 685
10.62 726
10.68 726
10.74 727
10.8 757
10.86 811
10.92 794
10.98 804
11.04 850
11.1 797
11.16 838
11.22 752
11.28 754
11.34 758
11.4 755
11.46 743
11.52 745
11.58 744
11.64 722
11.7 726
11.76 702
11.82 695
11.88 670
11.94 685
12 609
12.06 668
12.12 687
12.18 707
12.24 678
12.3 674
12.36 682
12.42 672
12.48 701
12.54 654
12.6 665
12.66 668
12.72 652
12.78 643
12.84 671
12.9 656
12.96 656
13.02 735
13.08 681
13.14 661
13.2 691
13.26 710
13.32 708
13.38 725
13.44 672
13.5 746
13.56 707
13.62 708
13.68 730
13.74 761
13.8 760
13.86 741
13.92 741
13.98 704
14.04 752
14.1 744
14.16 741
14.22 862
14.28 775
14.34 846
14.4 809
14.46 806
14.52 824
14.58 777
14.64 827
14.7 879
14.76 833
14.82 859
14.88 820
14.94 845
15 824
15.06 863
15.12 869
15.18 861
15.24 833
15.3 838
15.36 839
15.42 917
15.48 895
15.54 866
15.6 900
15.66 906
15.72 886
15.78 920
15.84 949
15.9 945
15.96 961
16.02 959
16.08 999
16.14 968
16.2 1045
16.26 1029
16.32 989
16.38 1056
16.44 1092
16.5 1091
16.56 1038
16.62 1066
16.68 1123
16.74 1079
16.8 1130
16.86 1127
16.92 1135
16.98 1199
17.04 1147
17.1 1101
17.16 1173
17.22 1143
17.28 1182
17.34 1196
17.4 1191
17.46 1292
17.52 1301
17.58 1245
17.64 1258
17.7 1258
17.76 1343
17.82 1308
17.88 1317
17.94 1356
18 1367
18.06 1377
18.12 1310
18.18 1343
18.24 1399
18.3 1418
18.36 1376
18.42 1467
18.48 1444
18.54 1432
18.6 1482
18.66 1469
18.72 1492
18.78 1505
18.84 1477
18.9 1532
18.96 1578
19.02 1584
19.08 1555
19.14 1604
19.2 1619
19.26 1602
19.32 1649
19.38 1620
19.44 1729
19.5 1722
19.56 1762
19.62 1725
19.68 1786
19.74 1842
19.8 1810
19.86 1755
19.92 1793
19.98 1791
20 1765