Folder: CPC-code/xrd-UiO-67/pxrddata (part 5)

File: 7-6.ASC
3 2118
3.06 1705
3.12 1427
3.18 1399
3.24 1352
3.3 1313
3.36 1305
3.42 1283
3.48 1221
3.54 1191
3.6 1193
3.66 1161
3.72 1150
3.78 1107
3.84 1083
3.9 1021
3.96 1065
4.02 973
4.08 1003
4.14 980
4.2 941
4.26 938
4.32 886
4.38 950
4.44 952
4.5 842
4.56 859
4.62 871
4.68 855
4.74 836
4.8 838
4.86 865
4.92 766
4.98 811
5.04 803
5.1 770
5.16 806
5.22 804
5.28 757
5.34 789
5.4 765
5.46 780
5.52 763
5.58 817
5.64 801
5.7 828
5.76 822
5.82 763
5.88 780
5.94 802
6 780
6.06 754
6.12 752
6.18 806
6.24 766
6.3 787
6.36 786
6.42 791
6.48 745
6.54 721
6.6 766
6.66 742
6.72 750
6.78 805
6.84 794
6.9 767
6.96 758
7.02 727
7.08 744
7.14 737
7.2 722
7.26 757
7.32 724
7.38 771
7.44 738
7.5 740
7.56 794
7.62 780
7.68 722
7.74 749
7.8 761
7.86 782
7.92 761
7.98 806
8.04 679
8.1 764
8.16 769
8.22 735
8.28 748
8.34 702
8.4 718
8.46 744
8.52 733
8.58 708
8.64 784
8.7 728
8.76 722
8.82 744
8.88 720
8.94 738
9 757
9.06 738
9.12 697
9.18 703
9.24 690
9.3 713
9.36 743
9.42 715
9.48 727
9.54 682
9.6 700
9.66 709
9.72 670
9.78 715
9.84 735
9.9 706
9.96 665
10.02 710
10.08 680
10.14 749
10.2 727
10.26 731
10.32 705
10.38 705
10.44 673
10.5 725
10.56 668
10.62 725
10.68 688
10.74 709
10.8 653
10.86 675
10.92 659
10.98 690
11.04 698
11.1 736
11.16 701
11.22 752
11.28 694
11.34 694
11.4 701
11.46 705
11.52 681
11.58 687
11.64 709
11.7 672
11.76 709
11.82 717
11.88 716
11.94 700
12 751
12.06 640
12.12 691
12.18 732
12.24 689
12.3 693
12.36 711
12.42 659
12.48 704
12.54 679
12.6 689
12.66 675
12.72 691
12.78 708
12.84 706
12.9 678
12.96 680
13.02 732
13.08 702
13.14 666
13.2 682
13.26 680
13.32 730
13.38 705
13.44 697
13.5 706
13.56 709
13.62 720
13.68 720
13.74 771
13.8 682
13.86 711
13.92 718
13.98 704
14.04 729
14.1 723
14.16 713
14.22 715
14.28 692
14.34 722
14.4 733
14.46 774
14.52 736
14.58 737
14.64 800
14.7 723
14.76 750
14.82 721
14.88 768
14.94 790
15 731
15.06 738
15.12 779
15.18 822
15.24 755
15.3 807
15.36 803
15.42 784
15.48 819
15.54 813
15.6 747
15.66 819
15.72 802
15.78 838
15.84 818
15.9 864
15.96 869
16.02 821
16.08 855
16.14 829
16.2 834
16.26 819
16.32 833
16.38 902
16.44 838
16.5 843
16.56 898
16.62 878
16.68 919
16.74 970
16.8 998
16.86 1128
16.92 1390
16.98 1735
17.04 1978
17.1 1779
17.16 1473
17.22 1217
17.28 1089
17.34 993
17.4 1024
17.46 1057
17.52 1007
17.58 1017
17.64 936
17.7 1048
17.76 1019
17.82 976
17.88 1053
17.94 1027
18 1113
18.06 1069
18.12 1089
18.18 1107
18.24 1017
18.3 1099
18.36 1083
18.42 1111
18.48 1069
18.54 1208
18.6 1156
18.66 1129
18.72 1137
18.78 1127
18.84 1152
18.9 1194
18.96 1163
19.02 1246
19.08 1220
19.14 1161
19.2 1224
19.26 1222
19.32 1238
19.38 1247
19.44 1241
19.5 1263
19.56 1251
19.62 1277
19.68 1351
19.74 1344
19.8 1395
19.86 1314
19.92 1350
19.98 1353
20 1379

File: 7-7.ASC
3 2072
3.06 1746
3.12 1555
3.18 1501
3.24 1437
3.3 1381
3.36 1418
3.42 1404
3.48 1320
3.54 1310
3.6 1334
3.66 1307
3.72 1227
3.78 1306
3.84 1396
3.9 1265
3.96 1261
4.02 1225
4.08 1324
4.14 1219
4.2 1228
4.26 1323
4.32 1231
4.38 1339
4.44 1284
4.5 1276
4.56 1264
4.62 1320
4.68 1336
4.74 1272
4.8 1333
4.86 1202
4.92 1299
4.98 1318
5.04 1309
5.1 1376
5.16 1319
5.22 1284
5.28 1338
5.34 1316
5.4 1289
5.46 1305
5.52 1305
5.58 1321
5.64 1265
5.7 1280
5.76 1231
5.82 1294
5.88 1207
5.94 1250
6 1233
6.06 1144
6.12 1232
6.18 1142
6.24 1161
6.3 1124
6.36 1110
6.42 1030
6.48 1029
6.54 1045
6.6 991
6.66 948
6.72 985
6.78 920
6.84 929
6.9 902
6.96 946
7.02 918
7.08 950
7.14 936
7.2 860
7.26 892
7.32 829
7.38 868
7.44 853
7.5 833
7.56 899
7.62 814
7.68 846
7.74 877
7.8 799
7.86 874
7.92 830
7.98 795
8.04 852
8.1 813
8.16 858
8.22 790
8.28 805
8.34 775
8.4 770
8.46 789
8.52 822
8.58 793
8.64 851
8.7 800
8.76 760
8.82 798
8.88 839
8.94 810
9 809
9.06 775
9.12 775
9.18 831
9.24 814
9.3 782
9.36 777
9.42 853
9.48 807
9.54 760
9.6 791
9.66 793
9.72 754
9.78 782
9.84 798
9.9 819
9.96 811
10.02 848
10.08 796
10.14 816
10.2 787
10.26 771
10.32 788
10.38 782
10.44 834
10.5 764
10.56 773
10.62 807
10.68 770
10.74 754
10.8 788
10.86 812
10.92 809
10.98 757
11.04 820
11.1 815
11.16 773
11.22 821
11.28 747
11.34 784
11.4 783
11.46 836
11.52 764
11.58 833
11.64 812
11.7 744
11.76 764
11.82 845
11.88 787
11.94 786
12 766
12.06 836
12.12 797
12.18 793
12.24 816
12.3 792
12.36 791
12.42 823
12.48 815
12.54 822
12.6 772
12.66 813
12.72 803
12.78 808
12.84 843
12.9 815
12.96 773
13.02 825
13.08 812
13.14 831
13.2 820
13.26 876
13.32 799
13.38 822
13.44 786
13.5 818
13.56 868
13.62 845
13.68 887
13.74 854
13.8 814
13.86 858
13.92 873
13.98 872
14.04 851
14.1 892
14.16 908
14.22 879
14.28 893
14.34 952
14.4 843
14.46 928
14.52 904
14.58 932
14.64 905
14.7 916
14.76 892
14.82 921
14.88 924
14.94 995
15 948
15.06 960
15.12 979
15.18 983
15.24 1031
15.3 984
15.36 1043
15.42 971
15.48 1019
15.54 1038
15.6 1034
15.66 1010
15.72 1032
15.78 1058
15.84 1072
15.9 1047
15.96 1090
16.02 1065
16.08 1080
16.14 1105
16.2 1098
16.26 1112
16.32 1110
16.38 1084
16.44 1135
16.5 1214
16.56 1183
16.62 1218
16.68 1193
16.74 1230
16.8 1283
16.86 1352
16.92 1626
16.98 1763
17.04 1847
17.1 1697
17.16 1593
17.22 1486
17.28 1491
17.34 1486
17.4 1401
17.46 1352
17.52 1322
17.58 1278
17.64 1361
17.7 1363
17.76 1387
17.82 1377
17.88 1484
17.94 1390
18 1400
18.06 1419
18.12 1454
18.18 1424
18.24 1498
18.3 1493
18.36 1471
18.42 1447
18.48 1520
18.54 1596
18.6 1507
18.66 1485
18.72 1560
18.78 1649
18.84 1596
18.9 1609
18.96 1625
19.02 1637
19.08 1602
19.14 1634
19.2 1593
19.26 1603
19.32 1689
19.38 1722
19.44 1722
19.5 1670
19.56 1779
19.62 1678
19.68 1745
19.74 1747
19.8 1764
19.86 1777
19.92 1781
19.98 1755
20 1748

File: 7-8.ASC
3 2348
3.06 1947
3.12 1759
3.18 1709
3.24 1622
3.3 1562
3.36 1584
3.42 1429
3.48 1398
3.54 1426
3.6 1363
3.66 1342
3.72 1329
3.78 1240
3.84 1272
3.9 1223
3.96 1181
4.02 1104
4.08 1140
4.14 1110
4.2 1128
4.26 1068
4.32 1046
4.38 1051
4.44 1008
4.5 1003
4.56 998
4.62 1003
4.68 953
4.74 958
4.8 982
4.86 954
4.92 929
4.98 972
5.04 922
5.1 914
5.16 892
5.22 937
5.28 934
5.34 873
5.4 877
5.46 860
5.52 895
5.58 813
5.64 895
5.7 906
5.76 842
5.82 825
5.88 842
5.94 854
6 803
6.06 895
6.12 888
6.18 815
6.24 826
6.3 836
6.36 885
6.42 826
6.48 826
6.54 818
6.6 833
6.66 839
6.72 772
6.78 853
6.84 804
6.9 864
6.96 860
7.02 813
7.08 757
7.14 810
7.2 793
7.26 808
7.32 844
7.38 821
7.44 791
7.5 806
7.56 785
7.62 802
7.68 784
7.74 806
7.8 817
7.86 809
7.92 766
7.98 801
8.04 802
8.1 811
8.16 809
8.22 788
8.28 791
8.34 800
8.4 798
8.46 769
8.52 753
8.58 729
8.64 747
8.7 777
8.76 798
8.82 764
8.88 772
8.94 745
9 740
9.06 778
9.12 733
9.18 715
9.24 742
9.3 726
9.36 758
9.42 728
9.48 732
9.54 756
9.6 728
9.66 755
9.72 719
9.78 751
9.84 770
9.9 705
9.96 675
10.02 716
10.08 719
10.14 741
10.2 725
10.26 736
10.32 772
10.38 678
10.44 678
10.5 708
10.56 716
10.62 771
10.68 725
10.74 756
10.8 708
10.86 734
10.92 692
10.98 747
11.04 691
11.1 701
11.16 716
11.22 741
11.28 710
11.34 666
11.4 729
11.46 730
11.52 699
11.58 726
11.64 716
11.7 709
11.76 731
11.82 712
11.88 708
11.94 740
12 701
12.06 768
12.12 736
12.18 718
12.24 768
12.3 726
12.36 701
12.42 703
12.48 731
12.54 732
12.6 724
12.66 772
12.72 762
12.78 773
12.84 710
12.9 752
12.96 707
13.02 758
13.08 783
13.14 760
13.2 701
13.26 702
13.32 731
13.38 793
13.44 784
13.5 754
13.56 768
13.62 757
13.68 744
13.74 751
13.8 752
13.86 724
13.92 738
13.98 770
14.04 790
14.1 772
14.16 791
14.22 745
14.28 832
14.34 767
14.4 786
14.46 732
14.52 782
14.58 749
14.64 791
14.7 857
14.76 857
14.82 850
14.88 807
14.94 785
15 792
15.06 791
15.12 804
15.18 875
15.24 798
15.3 843
15.36 827
15.42 813
15.48 905
15.54 816
15.6 880
15.66 847
15.72 900
15.78 854
15.84 941
15.9 879
15.96 937
16.02 954
16.08 873
16.14 908
16.2 927
16.26 933
16.32 946
16.38 978
16.44 959
16.5 934
16.56 978
16.62 1019
16.68 1014
16.74 1068
16.8 1074
16.86 1236
16.92 1425
16.98 1699
17.04 1770
17.1 1820
17.16 1843
17.22 1623
17.28 1262
17.34 1126
17.4 1136
17.46 1099
17.52 1121
17.58 1167
17.64 1133
17.7 1197
17.76 1106
17.82 1137
17.88 1122
17.94 1190
18 1181
18.06 1201
18.12 1204
18.18 1242
18.24 1215
18.3 1244
18.36 1252
18.42 1255
18.48 1254
18.54 1321
18.6 1261
18.66 1277
18.72 1299
18.78 1338
18.84 1385
18.9 1387
18.96 1307
19.02 1359
19.08 1393
19.14 1417
19.2 1424
19.26 1366
19.32 1435
19.38 1445
19.44 1457
19.5 1465
19.56 1472
19.62 1446
19.68 1479
19.74 1478
19.8 1457
19.86 1569
19.92 1533
19.98 1530
20 1561

File: 7-9.ASC
3 1979
3.06 1482
3.12 1297
3.18 1216
3.24 1150
3.3 1126
3.36 1177
3.42 1095
3.48 1037
3.54 974
3.6 992
3.66 984
3.72 921
3.78 916
3.84 897
3.9 861
3.96 848
4.02 779
4.08 826
4.14 776
4.2 706
4.26 727
4.32 697
4.38 687
4.44 693
4.5 688
4.56 640
4.62 634
4.68 610
4.74 608
4.8 623
4.86 597
4.92 525
4.98 563
5.04 552
5.1 545
5.16 525
5.22 566
5.28 493
5.34 524
5.4 533
5.46 520
5.52 493
5.58 503
5.64 485
5.7 514
5.76 475
5.82 471
5.88 483
5.94 478
6 513
6.06 501
6.12 528
6.18 445
6.24 516
6.3 504
6.36 501
6.42 503
6.48 474
6.54 484
6.6 503
6.66 503
6.72 496
6.78 501
6.84 482
6.9 454
6.96 467
7.02 458
7.08 478
7.14 463
7.2 542
7.26 499
7.32 522
7.38 499
7.44 483
7.5 451
7.56 439
7.62 502
7.68 471
7.74 494
7.8 475
7.86 469
7.92 469
7.98 449
8.04 480
8.1 483
8.16 486
8.22 447
8.28 454
8.34 462
8.4 462
8.46 466
8.52 505
8.58 480
8.64 526
8.7 563
8.76 647
8.82 690
8.88 892
8.94 1136
9 1479
9.06 1335
9.12 1079
9.18 941
9.24 871
9.3 699
9.36 548
9.42 537
9.48 497
9.54 508
9.6 534
9.66 495
9.72 552
9.78 613
9.84 694
9.9 812
9.96 1078
10.02 856
10.08 726
10.14 809
10.2 704
10.26 515
10.32 473
10.38 422
10.44 443
10.5 437
10.56 425
10.62 428
10.68 416
10.74 410
10.8 437
10.86 449
10.92 396
10.98 409
11.04 390
11.1 434
11.16 456
11.22 411
11.28 443
11.34 420
11.4 412
11.46 406
11.52 406
11.58 410
11.64 428
11.7 434
11.76 429
11.82 381
11.88 370
11.94 399
12 394
12.06 372
12.12 383
12.18 397
12.24 413
12.3 372
12.36 396
12.42 394
12.48 445
12.54 450
12.6 505
12.66 479
12.72 525
12.78 532
12.84 527
12.9 446
12.96 393
13.02 448
13.08 420
13.14 414
13.2 444
13.26 476
13.32 495
13.38 563
13.44 586
13.5 505
13.56 520
13.62 533
13.68 462
13.74 437
13.8 439
13.86 413
13.92 438
13.98 423
14.04 381
14.1 390
14.16 386
14.22 437
14.28 407
14.34 404
14.4 405
14.46 424
14.52 444
14.58 409
14.64 402
14.7 437
14.76 413
14.82 425
14.88 430
14.94 447
15 453
15.06 432
15.12 453
15.18 448
15.24 476
15.3 426
15.36 437
15.42 452
15.48 442
15.54 410
15.6 445
15.66 450
15.72 467
15.78 450
15.84 454
15.9 443
15.96 483
16.02 465
16.08 446
16.14 482
16.2 487
16.26 494
16.32 445
16.38 452
16.44 451
16.5 465
16.56 462
16.62 478
16.68 480
16.74 487
16.8 526
16.86 610
16.92 599
16.98 686
17.04 652
17.1 566
17.16 612
17.22 587
17.28 546
17.34 566
17.4 540
17.46 517
17.52 547
17.58 553
17.64 557
17.7 541
17.76 554
17.82 561
17.88 562
17.94 581
18 597
18.06 590
18.12 592
18.18 560
18.24 558
18.3 570
18.36 593
18.42 585
18.48 624
18.54 615
18.6 562
18.66 619
18.72 577
18.78 600
18.84 566
18.9 586
18.96 596
19.02 611
19.08 600
19.14 609
19.2 599
19.26 628
19.32 585
19.38 644
19.44 598
19.5 699
19.56 649
19.62 646
19.68 676
19.74 636
19.8 696
19.86 720
19.92 753
19.98 808
20 833

File: 7-10.ASC
3 2231
3.06 1856
3.12 1668
3.18 1590
3.24 1614
3.3 1579
3.36 1429
3.42 1436
3.48 1415
3.54 1365
3.6 1387
3.66 1314
3.72 1376
3.78 1264
3.84 1279
3.9 1255
3.96 1274
4.02 1194
4.08 1242
4.14 1242
4.2 1238
4.26 1232
4.32 1238
4.38 1268
4.44 1190
4.5 1244
4.56 1157
4.62 1154
4.68 1150
4.74 1135
4.8 1186
4.86 1161
4.92 1141
4.98 1159
5.04 1196
5.1 1140
5.16 1104
5.22 1131
5.28 1104
5.34 1145
5.4 1119
5.46 1065
5.52 1066
5.58 1032
5.64 1038
5.7 1005
5.76 908
5.82 926
5.88 962
5.94 916
6 824
6.06 831
6.12 843
6.18 769
6.24 811
6.3 747
6.36 780
6.42 804
6.48 716
6.54 756
6.6 735
6.66 713
6.72 707
6.78 722
6.84 675
6.9 647
6.96 657
7.02 666
7.08 630
7.14 667
7.2 656
7.26 611
7.32 629
7.38 634
7.44 584
7.5 593
7.56 615
7.62 623
7.68 635
7.74 603
7.8 617
7.86 610
7.92 568
7.98 582
8.04 610
8.1 587
8.16 568
8.22 583
8.28 598
8.34 617
8.4 592
8.46 580
8.52 611
8.58 581
8.64 553
8.7 567
8.76 587
8.82 543
8.88 578
8.94 594
9 543
9.06 594
9.12 558
9.18 566
9.24 584
9.3 568
9.36 559
9.42 560
9.48 562
9.54 613
9.6 576
9.66 531
9.72 552
9.78 532
9.84 559
9.9 561
9.96 605
10.02 589
10.08 570
10.14 538
10.2 579
10.26 537
10.32 536
10.38 550
10.44 551
10.5 574
10.56 498
10.62 561
10.68 543
10.74 533
10.8 555
10.86 538
10.92 570
10.98 576
11.04 578
11.1 539
11.16 568
11.22 543
11.28 499
11.34 547
11.4 544
11.46 533
11.52 478
11.58 498
11.64 508
11.7 531
11.76 520
11.82 539
11.88 512
11.94 520
12 538
12.06 536
12.12 556
12.18 542
12.24 547
12.3 533
12.36 524
12.42 538
12.48 563
12.54 562
12.6 481
12.66 531
12.72 569
12.78 491
12.84 527
12.9 570
12.96 551
13.02 526
13.08 530
13.14 536
13.2 554
13.26 539
13.32 537
13.38 559
13.44 566
13.5 562
13.56 557
13.62 561
13.68 510
13.74 565
13.8 586
13.86 567
13.92 584
13.98 576
14.04 567
14.1 591
14.16 589
14.22 591
14.28 609
14.34 572
14.4 630
14.46 591
14.52 610
14.58 615
14.64 586
14.7 668
14.76 620
14.82 592
14.88 656
14.94 619
15 654
15.06 671
15.12 651
15.18 643
15.24 642
15.3 684
15.36 624
15.42 655
15.48 673
15.54 654
15.6 705
15.66 656
15.72 646
15.78 707
15.84 663
15.9 664
15.96 733
16.02 697
16.08 773
16.14 723
16.2 730
16.26 728
16.32 732
16.38 771
16.44 819
16.5 751
16.56 795
16.62 740
16.68 764
16.74 790
16.8 751
16.86 804
16.92 776
16.98 793
17.04 838
17.1 843
17.16 816
17.22 813
17.28 780
17.34 833
17.4 832
17.46 869
17.52 884
17.58 858
17.64 854
17.7 878
17.76 860
17.82 926
17.88 948
17.94 877
18 885
18.06 917
18.12 875
18.18 943
18.24 952
18.3 975
18.36 913
18.42 1019
18.48 930
18.54 927
18.6 981
18.66 955
18.72 974
18.78 989
18.84 962
18.9 995
18.96 1016
19.02 994
19.08 981
19.14 987
19.2 1006
19.26 1038
19.32 1074
19.38 1009
19.44 1086
19.5 998
19.56 1041
19.62 1070
19.68 1025
19.74 1044
19.8 1060
19.86 1027
19.92 1052
19.98 1057
20 1092

File: 7-12.ASC
3 2139
3.06 1654
3.12 1587
3.18 1473
3.24 1464
3.3 1323
3.36 1278
3.42 1230
3.48 1201
3.54 1199
3.6 1227
3.66 1082
3.72 1122
3.78 1091
3.84 1029
3.9 1035
3.96 1021
4.02 1002
4.08 889
4.14 933
4.2 955
4.26 867
4.32 825
4.38 800
4.44 847
4.5 879
4.56 821
4.62 782
4.68 739
4.74 766
4.8 748
4.86 774
4.92 723
4.98 703
5.04 695
5.1 659
5.16 703
5.22 652
5.28 667
5.34 669
5.4 653
5.46 649
5.52 676
5.58 625
5.64 645
5.7 666
5.76 678
5.82 631
5.88 636
5.94 610
6 622
6.06 613
6.12 634
6.18 661
6.24 622
6.3 659
6.36 672
6.42 679
6.48 617
6.54 641
6.6 648
6.66 680
6.72 646
6.78 659
6.84 662
6.9 614
6.96 656
7.02 653
7.08 644
7.14 637
7.2 654
7.26 648
7.32 623
7.38 629
7.44 613
7.5 647
7.56 592
7.62 637
7.68 603
7.74 647
7.8 618
7.86 631
7.92 632
7.98 641
8.04 578
8.1 593
8.16 622
8.22 617
8.28 639
8.34 590
8.4 651
8.46 575
8.52 639
8.58 637
8.64 666
8.7 695
8.76 703
8.82 809
8.88 870
8.94 1085
9 1442
9.06 1465
9.12 1011
9.18 807
9.24 731
9.3 737
9.36 629
9.42 650
9.48 644
9.54 644
9.6 620
9.66 656
9.72 687
9.78 685
9.84 765
9.9 752
9.96 755
10.02 726
10.08 678
10.14 639
10.2 645
10.26 627
10.32 616
10.38 611
10.44 659
10.5 619
10.56 671
10.62 633
10.68 577
10.74 657
10.8 660
10.86 605
10.92 593
10.98 592
11.04 601
11.1 592
11.16 585
11.22 603
11.28 589
11.34 563
11.4 613
11.46 550
11.52 589
11.58 578
11.64 530
11.7 544
11.76 612
11.82 592
11.88 621
11.94 579
12 606
12.06 568
12.12 573
12.18 557
12.24 605
12.3 558
12.36 563
12.42 609
12.48 647
12.54 595
12.6 643
12.66 636
12.72 639
12.78 596
12.84 636
12.9 607
12.96 608
13.02 638
13.08 569
13.14 608
13.2 628
13.26 616
13.32 656
13.38 601
13.44 601
13.5 652
13.56 585
13.62 604
13.68 624
13.74 586
13.8 626
13.86 635
13.92 637
13.98 641
14.04 644
14.1 641
14.16 653
14.22 598
14.28 649
14.34 651
14.4 627
14.46 646
14.52 640
14.58 662
14.64 700
14.7 692
14.76 642
14.82 629
14.88 686
14.94 631
15 687
15.06 669
15.12 693
15.18 687
15.24 686
15.3 698
15.36 688
15.42 725
15.48 723
15.54 693
15.6 690
15.66 676
15.72 703
15.78 688
15.84 786
15.9 708
15.96 753
16.02 677
16.08 763
16.14 705
16.2 747
16.26 755
16.32 807
16.38 746
16.44 791
16.5 769
16.56 807
16.62 798
16.68 814
16.74 870
16.8 909
16.86 1023
16.92 1221
16.98 1300
17.04 1179
17.1 1045
17.16 946
17.22 904
17.28 882
17.34 898
17.4 870
17.46 885
17.52 861
17.58 889
17.64 936
17.7 956
17.76 930
17.82 906
17.88 959
17.94 977
18 944
18.06 942
18.12 999
18.18 955
18.24 1016
18.3 1005
18.36 988
18.42 984
18.48 1045
18.54 1019
18.6 1008
18.66 1032
18.72 1033
18.78 1060
18.84 1062
18.9 1077
18.96 1029
19.02 1085
19.08 1159
19.14 988
19.2 1099
19.26 1106
19.32 1070
19.38 1079
19.44 1184
19.5 1160
19.56 1155
19.62 1173
19.68 1189
19.74 1175
19.8 1184
19.86 1213
19.92 1156
19.98 1214
20 1204

File: 7-14.ASC
3 2112
3.06 1686
3.12 1546
3.18 1491
3.24 1406
3.3 1389
3.36 1361
3.42 1281
3.48 1266
3.54 1260
3.6 1233
3.66 1275
3.72 1192
3.78 1177
3.84 1150
3.9 1113
3.96 1142
4.02 1136
4.08 1118
4.14 1085
4.2 1113
4.26 1075
4.32 1091
4.38 1077
4.44 1075
4.5 1103
4.56 1076
4.62 1116
4.68 1078
4.74 1041
4.8 1125
4.86 1105
4.92 1091
4.98 1156
5.04 1194
5.1 1171
5.16 1175
5.22 1178
5.28 1234
5.34 1213
5.4 1178
5.46 1194
5.52 1219
5.58 1164
5.64 1139
5.7 1195
5.76 1115
5.82 1120
5.88 1105
5.94 1098
6 1039
6.06 972
6.12 973
6.18 925
6.24 989
6.3 946
6.36 910
6.42 876
6.48 859
6.54 855
6.6 820
6.66 814
6.72 756
6.78 775
6.84 764
6.9 735
6.96 708
7.02 705
7.08 691
7.14 705
7.2 743
7.26 703
7.32 721
7.38 706
7.44 760
7.5 694
7.56 693
7.62 676
7.68 685
7.74 723
7.8 670
7.86 669
7.92 645
7.98 636
8.04 683
8.1 622
8.16 684
8.22 631
8.28 607
8.34 678
8.4 660
8.46 621
8.52 625
8.58 673
8.64 646
8.7 671
8.76 677
8.82 676
8.88 686
8.94 769
9 807
9.06 913
9.12 747
9.18 756
9.24 726
9.3 698
9.36 701
9.42 715
9.48 624
9.54 699
9.6 669
9.66 651
9.72 631
9.78 656
9.84 685
9.9 662
9.96 681
10.02 652
10.08 678
10.14 678
10.2 646
10.26 663
10.32 637
10.38 677
10.44 670
10.5 625
10.56 653
10.62 676
10.68 707
10.74 658
10.8 654
10.86 673
10.92 612
10.98 652
11.04 678
11.1 652
11.16 663
11.22 637
11.28 642
11.34 651
11.4 620
11.46 613
11.52 687
11.58 606
11.64 651
11.7 642
11.76 633
11.82 624
11.88 661
11.94 627
12 610
12.06 596
12.12 649
12.18 618
12.24 595
12.3 626
12.36 665
12.42 623
12.48 631
12.54 572
12.6 627
12.66 590
12.72 645
12.78 646
12.84 606
12.9 646
12.96 634
13.02 663
13.08 637
13.14 616
13.2 644
13.26 658
13.32 652
13.38 702
13.44 633
13.5 634
13.56 643
13.62 669
13.68 694
13.74 685
13.8 674
13.86 717
13.92 667
13.98 708
14.04 652
14.1 711
14.16 716
14.22 685
14.28 720
14.34 712
14.4 692
14.46 740
14.52 698
14.58 698
14.64 701
14.7 717
14.76 731
14.82 728
14.88 711
14.94 769
15 750
15.06 752
15.12 782
15.18 762
15.24 805
15.3 822
15.36 768
15.42 806
15.48 761
15.54 818
15.6 793
15.66 811
15.72 833
15.78 782
15.84 869
15.9 853
15.96 801
16.02 852
16.08 816
16.14 803
16.2 895
16.26 844
16.32 852
16.38 859
16.44 873
16.5 872
16.56 933
16.62 966
16.68 1019
16.74 964
16.8 962
16.86 1148
16.92 1299
16.98 1792
17.04 1956
17.1 1934
17.16 2002
17.22 1486
17.28 1078
17.34 975
17.4 1006
17.46 963
17.52 1008
17.58 1067
17.64 1033
17.7 1094
17.76 1049
17.82 1093
17.88 1069
17.94 1118
18 1132
18.06 1028
18.12 1147
18.18 1150
18.24 1101
18.3 1142
18.36 1147
18.42 1153
18.48 1171
18.54 1156
18.6 1155
18.66 1258
18.72 1152
18.78 1218
18.84 1194
18.9 1256
18.96 1297
19.02 1254
19.08 1317
19.14 1242
19.2 1298
19.26 1337
19.32 1328
19.38 1451
19.44 1296
19.5 1271
19.56 1301
19.62 1307
19.68 1344
19.74 1321
19.8 1413
19.86 1307
19.92 1365
19.98 1344
20 1384

File: 7-15.ASC
3 2429
3.06 2129
3.12 1929
3.18 1963
3.24 1756
3.3 1689
3.36 1622
3.42 1582
3.48 1591
3.54 1548
3.6 1414
3.66 1408
3.72 1449
3.78 1361
3.84 1357
3.9 1334
3.96 1266
4.02 1166
4.08 1156
4.14 1154
4.2 1092
4.26 1107
4.32 1045
4.38 1032
4.44 1056
4.5 1009
4.56 1012
4.62 1000
4.68 919
4.74 985
4.8 977
4.86 1027
4.92 931
4.98 917
5.04 903
5.1 870
5.16 893
5.22 890
5.28 856
5.34 889
5.4 880
5.46 900
5.52 865
5.58 892
5.64 878
5.7 896
5.76 873
5.82 883
5.88 828
5.94 862
6 894
6.06 858
6.12 907
6.18 903
6.24 841
6.3 883
6.36 872
6.42 868
6.48 829
6.54 865
6.6 870
6.66 849
6.72 863
6.78 802
6.84 849
6.9 826
6.96 815
7.02 884
7.08 814
7.14 810
7.2 812
7.26 850
7.32 798
7.38 823
7.44 798
7.5 833
7.56 839
7.62 885
7.68 822
7.74 849
7.8 836
7.86 792
7.92 824
7.98 825
8.04 814
8.1 786
8.16 780
8.22 782
8.28 839
8.34 783
8.4 784
8.46 789
8.52 784
8.58 791
8.64 762
8.7 785
8.76 768
8.82 805
8.88 859
8.94 776
9 761
9.06 748
9.12 798
9.18 756
9.24 795
9.3 793
9.36 781
9.42 738
9.48 745
9.54 730
9.6 744
9.66 692
9.72 744
9.78 760
9.84 749
9.9 751
9.96 696
10.02 730
10.08 743
10.14 698
10.2 685
10.26 694
10.32 698
10.38 736
10.44 723
10.5 763
10.56 696
10.62 676
10.68 757
10.74 755
10.8 728
10.86 714
10.92 689
10.98 694
11.04 690
11.1 687
11.16 723
11.22 676
11.28 717
11.34 701
11.4 720
11.46 700
11.52 698
11.58 706
11.64 723
11.7 681
11.76 760
11.82 736
11.88 725
11.94 692
12 721
12.06 762
12.12 693
12.18 707
12.24 737
12.3 719
12.36 685
12.42 746
12.48 678
12.54 700
12.6 744
12.66 763
12.72 730
12.78 763
12.84 777
12.9 756
12.96 775
13.02 771
13.08 770
13.14 753
13.2 784
13.26 731
13.32 771
13.38 757
13.44 809
13.5 760
13.56 789
13.62 785
13.68 716
13.74 710
13.8 776
13.86 737
13.92 808
13.98 756
14.04 714
14.1 833
14.16 794
14.22 745
14.28 765
14.34 840
14.4 825
14.46 766
14.52 823
14.58 791
14.64 819
14.7 811
14.76 875
14.82 823
14.88 843
14.94 848
15 851
15.06 857
15.12 838
15.18 878
15.24 877
15.3 856
15.36 863
15.42 870
15.48 874
15.54 914
15.6 928
15.66 903
15.72 901
15.78 880
15.84 938
15.9 946
15.96 937
16.02 941
16.08 903
16.14 912
16.2 941
16.26 1001
16.32 945
16.38 922
16.44 998
16.5 967
16.56 956
16.62 978
16.68 1081
16.74 1095
16.8 1159
16.86 1382
16.92 1743
16.98 2309
17.04 2348
17.1 1561
17.16 1227
17.22 1115
17.28 1137
17.34 1100
17.4 1086
17.46 1107
17.52 1146
17.58 1128
17.64 1086
17.7 1107
17.76 1150
17.82 1141
17.88 1107
17.94 1119
18 1092
18.06 1141
18.12 1210
18.18 1163
18.24 1189
18.3 1172
18.36 1165
18.42 1300
18.48 1201
18.54 1266
18.6 1231
18.66 1234
18.72 1233
18.78 1246
18.84 1221
18.9 1291
18.96 1266
19.02 1270
19.08 1330
19.14 1283
19.2 1288
19.26 1361
19.32 1288
19.38 1364
19.44 1321
19.5 1351
19.56 1403
19.62 1393
19.68 1355
19.74 1435
19.8 1396
19.86 1447
19.92 1459
19.98 1423
20 1454

File: 7-16.ASC
3 2137
3.06 1752
3.12 1523
3.18 1493
3.24 1380
3.3 1355
3.36 1352
3.42 1296
3.48 1248
3.54 1256
3.6 1206
3.66 1134
3.72 1104
3.78 1047
3.84 1003
3.9 975
3.96 1002
4.02 995
4.08 901
4.14 994
4.2 861
4.26 859
4.32 875
4.38 819
4.44 850
4.5 838
4.56 801
4.62 761
4.68 821
4.74 762
4.8 737
4.86 726
4.92 702
4.98 729
5.04 755
5.1 737
5.16 685
5.22 728
5.28 700
5.34 700
5.4 684
5.46 648
5.52 669
5.58 690
5.64 684
5.7 671
5.76 646
5.82 632
5.88 660
5.94 687
6 639
6.06 637
6.12 677
6.18 628
6.24 626
6.3 642
6.36 617
6.42 646
6.48 672
6.54 683
6.6 625
6.66 634
6.72 628
6.78 612
6.84 636
6.9 612
6.96 626
7.02 623
7.08 630
7.14 598
7.2 625
7.26 630
7.32 560
7.38 613
7.44 602
7.5 636
7.56 660
7.62 618
7.68 625
7.74 637
7.8 617
7.86 617
7.92 616
7.98 637
8.04 638
8.1 632
8.16 648
8.22 578
8.28 577
8.34 622
8.4 623
8.46 558
8.52 588
8.58 625
8.64 573
8.7 638
8.76 611
8.82 621
8.88 638
8.94 611
9 651
9.06 685
9.12 639
9.18 646
9.24 633
9.3 576
9.36 635
9.42 580
9.48 596
9.54 586
9.6 573
9.66 607
9.72 609
9.78 549
9.84 559
9.9 625
9.96 601
10.02 615
10.08 610
10.14 592
10.2 538
10.26 542
10.32 569
10.38 582
10.44 604
10.5 607
10.56 557
10.62 561
10.68 578
10.74 546
10.8 600
10.86 627
10.92 603
10.98 592
11.04 568
11.1 593
11.16 571
11.22 595
11.28 588
11.34 634
11.4 584
11.46 594
11.52 626
11.58 590
11.64 603
11.7 551
11.76 585
11.82 588
11.88 571
11.94 602
12 604
12.06 630
12.12 586
12.18 598
12.24 600
12.3 581
12.36 567
12.42 590
12.48 583
12.54 559
12.6 622
12.66 576
12.72 602
12.78 615
12.84 620
12.9 591
12.96 612
13.02 597
13.08 623
13.14 607
13.2 630
13.26 632
13.32 649
13.38 611
13.44 665
13.5 614
13.56 658
13.62 643
13.68 613
13.74 642
13.8 635
13.86 636
13.92 681
13.98 655
14.04 642
14.1 676
14.16 611
14.22 655
14.28 653
14.34 659
14.4 660
14.46 659
14.52 690
14.58 691
14.64 691
14.7 684
14.76 665
14.82 669
14.88 685
14.94 662
15 668
15.06 686
15.12 716
15.18 715
15.24 728
15.3 767
15.36 724
15.42 734
15.48 755
15.54 693
15.6 766
15.66 714
15.72 733
15.78 762
15.84 782
15.9 797
15.96 762
16.02 768
16.08 785
16.14 774
16.2 740
16.26 804
16.32 787
16.38 760
16.44 870
16.5 847
16.56 842
16.62 900
16.68 895
16.74 943
16.8 1045
16.86 1282
16.92 1704
16.98 2324
17.04 2461
17.1 1872
17.16 1394
17.22 1139
17.28 989
17.34 900
17.4 910
17.46 925
17.52 883
17.58 937
17.64 919
17.7 875
17.76 914
17.82 932
17.88 930
17.94 885
18 968
18.06 968
18.12 951
18.18 961
18.24 968
18.3 984
18.36 968
18.42 997
18.48 955
18.54 1083
18.6 1073
18.66 1063
18.72 1023
18.78 1035
18.84 1076
18.9 1093
18.96 1049
19.02 1094
19.08 1074
19.14 1102
19.2 1078
19.26 1101
19.32 1077
19.38 1070
19.44 1085
19.5 1147
19.56 1145
19.62 1151
19.68 1129
19.74 1139
19.8 1149
19.86 1186
19.92 1220
19.98 1128
20 1224