Folder: CPC-code/xrd-UiO-67/pxrddata (part 7)

File: 7-30.ASC
3 2239
3.06 1871
3.12 1635
3.18 1544
3.24 1430
3.3 1385
3.36 1309
3.42 1313
3.48 1259
3.54 1235
3.6 1252
3.66 1160
3.72 1135
3.78 1063
3.84 1096
3.9 1075
3.96 983
4.02 982
4.08 989
4.14 936
4.2 915
4.26 962
4.32 895
4.38 837
4.44 847
4.5 828
4.56 878
4.62 803
4.68 826
4.74 836
4.8 884
4.86 859
4.92 874
4.98 823
5.04 872
5.1 963
5.16 1031
5.22 1063
5.28 1150
5.34 1203
5.4 1322
5.46 1370
5.52 1422
5.58 1441
5.64 1492
5.7 1452
5.76 1426
5.82 1252
5.88 1139
5.94 1038
6 936
6.06 856
6.12 828
6.18 831
6.24 737
6.3 752
6.36 766
6.42 761
6.48 767
6.54 730
6.6 731
6.66 763
6.72 786
6.78 701
6.84 720
6.9 750
6.96 738
7.02 737
7.08 751
7.14 724
7.2 697
7.26 710
7.32 701
7.38 676
7.44 708
7.5 728
7.56 690
7.62 695
7.68 650
7.74 704
7.8 691
7.86 664
7.92 675
7.98 627
8.04 677
8.1 686
8.16 653
8.22 628
8.28 677
8.34 615
8.4 680
8.46 655
8.52 655
8.58 629
8.64 631
8.7 636
8.76 619
8.82 617
8.88 689
8.94 699
9 692
9.06 676
9.12 724
9.18 733
9.24 839
9.3 869
9.36 879
9.42 790
9.48 775
9.54 714
9.6 682
9.66 648
9.72 689
9.78 604
9.84 639
9.9 618
9.96 649
10.02 599
10.08 642
10.14 684
10.2 611
10.26 627
10.32 642
10.38 591
10.44 632
10.5 628
10.56 618
10.62 639
10.68 673
10.74 720
10.8 715
10.86 732
10.92 722
10.98 745
11.04 697
11.1 703
11.16 675
11.22 668
11.28 633
11.34 612
11.4 640
11.46 623
11.52 610
11.58 610
11.64 592
11.7 624
11.76 611
11.82 649
11.88 590
11.94 615
12 623
12.06 630
12.12 617
12.18 617
12.24 612
12.3 622
12.36 613
12.42 625
12.48 654
12.54 595
12.6 592
12.66 613
12.72 586
12.78 607
12.84 650
12.9 607
12.96 624
13.02 657
13.08 583
13.14 621
13.2 606
13.26 639
13.32 630
13.38 615
13.44 649
13.5 609
13.56 635
13.62 687
13.68 652
13.74 671
13.8 656
13.86 696
13.92 659
13.98 655
14.04 673
14.1 646
14.16 649
14.22 719
14.28 705
14.34 649
14.4 734
14.46 715
14.52 679
14.58 682
14.64 677
14.7 691
14.76 695
14.82 759
14.88 698
14.94 653
15 698
15.06 731
15.12 758
15.18 732
15.24 766
15.3 786
15.36 698
15.42 738
15.48 751
15.54 756
15.6 760
15.66 806
15.72 773
15.78 777
15.84 770
15.9 790
15.96 821
16.02 777
16.08 776
16.14 810
16.2 850
16.26 854
16.32 830
16.38 819
16.44 913
16.5 919
16.56 870
16.62 852
16.68 882
16.74 861
16.8 892
16.86 895
16.92 919
16.98 909
17.04 898
17.1 921
17.16 919
17.22 917
17.28 932
17.34 936
17.4 952
17.46 973
17.52 1009
17.58 1011
17.64 1030
17.7 961
17.76 979
17.82 996
17.88 1028
17.94 1053
18 1026
18.06 1038
18.12 1003
18.18 1059
18.24 1053
18.3 1090
18.36 1092
18.42 1069
18.48 1114
18.54 1091
18.6 1136
18.66 1096
18.72 1208
18.78 1136
18.84 1146
18.9 1090
18.96 1173
19.02 1165
19.08 1126
19.14 1216
19.2 1209
19.26 1182
19.32 1197
19.38 1243
19.44 1276
19.5 1248
19.56 1287
19.62 1335
19.68 1278
19.74 1271
19.8 1276
19.86 1266
19.92 1287
19.98 1243
20 1213

File: 7-31.ASC
3 2140
3.06 1687
3.12 1538
3.18 1420
3.24 1445
3.3 1322
3.36 1284
3.42 1277
3.48 1175
3.54 1188
3.6 1119
3.66 1064
3.72 1082
3.78 1092
3.84 999
3.9 962
3.96 932
4.02 951
4.08 998
4.14 908
4.2 908
4.26 911
4.32 835
4.38 833
4.44 806
4.5 812
4.56 776
4.62 787
4.68 775
4.74 760
4.8 762
4.86 699
4.92 710
4.98 749
5.04 735
5.1 713
5.16 693
5.22 679
5.28 691
5.34 757
5.4 675
5.46 686
5.52 734
5.58 681
5.64 697
5.7 667
5.76 661
5.82 673
5.88 752
5.94 664
6 663
6.06 654
6.12 661
6.18 671
6.24 696
6.3 637
6.36 652
6.42 710
6.48 677
6.54 694
6.6 666
6.66 685
6.72 691
6.78 675
6.84 700
6.9 683
6.96 643
7.02 702
7.08 700
7.14 683
7.2 676
7.26 671
7.32 683
7.38 641
7.44 682
7.5 660
7.56 651
7.62 672
7.68 684
7.74 619
7.8 674
7.86 720
7.92 686
7.98 624
8.04 599
8.1 666
8.16 664
8.22 633
8.28 669
8.34 654
8.4 642
8.46 635
8.52 637
8.58 661
8.64 660
8.7 622
8.76 643
8.82 660
8.88 653
8.94 627
9 616
9.06 634
9.12 627
9.18 645
9.24 641
9.3 632
9.36 646
9.42 627
9.48 625
9.54 639
9.6 633
9.66 618
9.72 628
9.78 606
9.84 673
9.9 636
9.96 655
10.02 649
10.08 621
10.14 621
10.2 577
10.26 641
10.32 616
10.38 610
10.44 592
10.5 614
10.56 647
10.62 580
10.68 644
10.74 583
10.8 639
10.86 643
10.92 651
10.98 611
11.04 646
11.1 598
11.16 640
11.22 616
11.28 646
11.34 605
11.4 611
11.46 625
11.52 634
11.58 609
11.64 622
11.7 657
11.76 642
11.82 639
11.88 661
11.94 628
12 601
12.06 640
12.12 614
12.18 628
12.24 629
12.3 675
12.36 629
12.42 701
12.48 666
12.54 620
12.6 628
12.66 655
12.72 666
12.78 672
12.84 636
12.9 643
12.96 686
13.02 632
13.08 670
13.14 728
13.2 655
13.26 707
13.32 721
13.38 743
13.44 700
13.5 714
13.56 724
13.62 715
13.68 675
13.74 721
13.8 721
13.86 692
13.92 736
13.98 654
14.04 734
14.1 730
14.16 767
14.22 673
14.28 687
14.34 724
14.4 787
14.46 742
14.52 767
14.58 743
14.64 787
14.7 759
14.76 822
14.82 794
14.88 797
14.94 780
15 798
15.06 790
15.12 804
15.18 809
15.24 805
15.3 797
15.36 840
15.42 833
15.48 858
15.54 878
15.6 832
15.66 877
15.72 890
15.78 865
15.84 877
15.9 864
15.96 839
16.02 892
16.08 897
16.14 896
16.2 893
16.26 927
16.32 892
16.38 906
16.44 943
16.5 987
16.56 1008
16.62 1018
16.68 1058
16.74 1110
16.8 1184
16.86 1406
16.92 1920
16.98 2799
17.04 3931
17.1 3381
17.16 1857
17.22 1234
17.28 1127
17.34 1095
17.4 1080
17.46 1074
17.52 1074
17.58 1129
17.64 1123
17.7 1167
17.76 1108
17.82 1110
17.88 1152
17.94 1194
18 1148
18.06 1142
18.12 1149
18.18 1148
18.24 1157
18.3 1200
18.36 1201
18.42 1171
18.48 1198
18.54 1183
18.6 1183
18.66 1251
18.72 1243
18.78 1205
18.84 1276
18.9 1282
18.96 1346
19.02 1340
19.08 1296
19.14 1297
19.2 1390
19.26 1360
19.32 1386
19.38 1366
19.44 1365
19.5 1401
19.56 1437
19.62 1418
19.68 1441
19.74 1485
19.8 1545
19.86 1506
19.92 1467
19.98 1493
20 1485

File: 7-32.ASC
3 1927
3.06 1660
3.12 1440
3.18 1347
3.24 1298
3.3 1318
3.36 1207
3.42 1174
3.48 1189
3.54 1138
3.6 1052
3.66 1032
3.72 1015
3.78 989
3.84 938
3.9 951
3.96 925
4.02 881
4.08 872
4.14 878
4.2 776
4.26 856
4.32 809
4.38 753
4.44 793
4.5 798
4.56 726
4.62 764
4.68 712
4.74 769
4.8 718
4.86 727
4.92 693
4.98 679
5.04 715
5.1 671
5.16 703
5.22 709
5.28 662
5.34 689
5.4 702
5.46 694
5.52 728
5.58 672
5.64 683
5.7 754
5.76 638
5.82 672
5.88 707
5.94 674
6 639
6.06 678
6.12 650
6.18 686
6.24 671
6.3 674
6.36 652
6.42 632
6.48 633
6.54 639
6.6 625
6.66 641
6.72 643
6.78 718
6.84 734
6.9 645
6.96 692
7.02 685
7.08 738
7.14 715
7.2 665
7.26 629
7.32 695
7.38 694
7.44 673
7.5 690
7.56 655
7.62 667
7.68 700
7.74 673
7.8 703
7.86 651
7.92 644
7.98 701
8.04 691
8.1 684
8.16 713
8.22 684
8.28 704
8.34 645
8.4 695
8.46 686
8.52 706
8.58 639
8.64 661
8.7 658
8.76 690
8.82 677
8.88 660
8.94 644
9 676
9.06 674
9.12 639
9.18 634
9.24 666
9.3 666
9.36 696
9.42 674
9.48 681
9.54 735
9.6 677
9.66 688
9.72 679
9.78 713
9.84 623
9.9 677
9.96 712
10.02 688
10.08 650
10.14 682
10.2 654
10.26 693
10.32 687
10.38 685
10.44 634
10.5 682
10.56 688
10.62 682
10.68 665
10.74 707
10.8 692
10.86 696
10.92 683
10.98 684
11.04 696
11.1 683
11.16 712
11.22 666
11.28 682
11.34 634
11.4 702
11.46 690
11.52 699
11.58 675
11.64 702
11.7 665
11.76 650
11.82 659
11.88 700
11.94 701
12 739
12.06 708
12.12 698
12.18 720
12.24 694
12.3 732
12.36 680
12.42 684
12.48 695
12.54 689
12.6 713
12.66 729
12.72 753
12.78 703
12.84 719
12.9 750
12.96 750
13.02 695
13.08 710
13.14 734
13.2 772
13.26 751
13.32 769
13.38 784
13.44 785
13.5 744
13.56 742
13.62 750
13.68 768
13.74 728
13.8 746
13.86 776
13.92 764
13.98 777
14.04 743
14.1 789
14.16 811
14.22 760
14.28 778
14.34 779
14.4 789
14.46 833
14.52 786
14.58 775
14.64 795
14.7 791
14.76 824
14.82 813
14.88 861
14.94 794
15 821
15.06 799
15.12 845
15.18 821
15.24 859
15.3 879
15.36 897
15.42 973
15.48 863
15.54 819
15.6 851
15.66 859
15.72 934
15.78 904
15.84 925
15.9 908
15.96 914
16.02 911
16.08 920
16.14 928
16.2 946
16.26 978
16.32 975
16.38 944
16.44 957
16.5 955
16.56 1018
16.62 979
16.68 1092
16.74 1111
16.8 1255
16.86 1524
16.92 1990
16.98 3024
17.04 4357
17.1 4191
17.16 2121
17.22 1276
17.28 1204
17.34 1225
17.4 1285
17.46 1231
17.52 1145
17.58 1162
17.64 1168
17.7 1130
17.76 1158
17.82 1132
17.88 1164
17.94 1145
18 1165
18.06 1249
18.12 1208
18.18 1252
18.24 1232
18.3 1244
18.36 1218
18.42 1274
18.48 1313
18.54 1319
18.6 1279
18.66 1324
18.72 1274
18.78 1289
18.84 1307
18.9 1324
18.96 1310
19.02 1343
19.08 1385
19.14 1354
19.2 1440
19.26 1405
19.32 1392
19.38 1410
19.44 1393
19.5 1391
19.56 1465
19.62 1484
19.68 1551
19.74 1489
19.8 1457
19.86 1543
19.92 1504
19.98 1535
20 1528

File: 7-33.ASC
3 2073
3.06 1717
3.12 1523
3.18 1332
3.24 1365
3.3 1379
3.36 1257
3.42 1303
3.48 1178
3.54 1175
3.6 1205
3.66 1108
3.72 1153
3.78 1123
3.84 1176
3.9 1108
3.96 1118
4.02 1087
4.08 1096
4.14 1128
4.2 1035
4.26 1084
4.32 1098
4.38 1132
4.44 1151
4.5 1108
4.56 1156
4.62 1124
4.68 1140
4.74 1202
4.8 1193
4.86 1306
4.92 1254
4.98 1280
5.04 1304
5.1 1318
5.16 1358
5.22 1339
5.28 1364
5.34 1358
5.4 1375
5.46 1440
5.52 1447
5.58 1406
5.64 1429
5.7 1463
5.76 1495
5.82 1376
5.88 1451
5.94 1488
6 1426
6.06 1373
6.12 1417
6.18 1346
6.24 1328
6.3 1350
6.36 1364
6.42 1320
6.48 1176
6.54 1251
6.6 1225
6.66 1215
6.72 1208
6.78 1137
6.84 1134
6.9 1056
6.96 1017
7.02 1022
7.08 995
7.14 983
7.2 967
7.26 909
7.32 964
7.38 951
7.44 918
7.5 955
7.56 896
7.62 901
7.68 805
7.74 888
7.8 830
7.86 806
7.92 814
7.98 884
8.04 820
8.1 806
8.16 875
8.22 834
8.28 827
8.34 801
8.4 804
8.46 782
8.52 784
8.58 832
8.64 779
8.7 764
8.76 801
8.82 758
8.88 808
8.94 795
9 812
9.06 749
9.12 781
9.18 757
9.24 740
9.3 750
9.36 810
9.42 761
9.48 768
9.54 768
9.6 802
9.66 797
9.72 833
9.78 795
9.84 807
9.9 784
9.96 792
10.02 823
10.08 889
10.14 830
10.2 847
10.26 836
10.32 801
10.38 808
10.44 806
10.5 850
10.56 809
10.62 797
10.68 840
10.74 869
10.8 864
10.86 849
10.92 819
10.98 823
11.04 836
11.1 893
11.16 840
11.22 867
11.28 835
11.34 870
11.4 854
11.46 860
11.52 900
11.58 839
11.64 839
11.7 863
11.76 899
11.82 838
11.88 922
11.94 896
12 856
12.06 851
12.12 889
12.18 867
12.24 868
12.3 889
12.36 888
12.42 851
12.48 876
12.54 941
12.6 929
12.66 860
12.72 891
12.78 931
12.84 847
12.9 881
12.96 842
13.02 919
13.08 872
13.14 876
13.2 899
13.26 864
13.32 898
13.38 908
13.44 899
13.5 893
13.56 927
13.62 833
13.68 895
13.74 932
13.8 905
13.86 878
13.92 997
13.98 884
14.04 973
14.1 925
14.16 983
14.22 948
14.28 989
14.34 987
14.4 943
14.46 955
14.52 1018
14.58 934
14.64 1008
14.7 981
14.76 984
14.82 1038
14.88 1032
14.94 1046
15 1036
15.06 1110
15.12 1097
15.18 1061
15.24 1030
15.3 1068
15.36 1094
15.42 1072
15.48 1153
15.54 1078
15.6 1122
15.66 1117
15.72 1167
15.78 1129
15.84 1175
15.9 1144
15.96 1164
16.02 1225
16.08 1213
16.14 1220
16.2 1257
16.26 1232
16.32 1235
16.38 1274
16.44 1310
16.5 1308
16.56 1196
16.62 1302
16.68 1301
16.74 1336
16.8 1341
16.86 1345
16.92 1317
16.98 1425
17.04 1386
17.1 1402
17.16 1452
17.22 1416
17.28 1378
17.34 1384
17.4 1502
17.46 1451
17.52 1498
17.58 1522
17.64 1509
17.7 1558
17.76 1509
17.82 1555
17.88 1482
17.94 1546
18 1536
18.06 1634
18.12 1613
18.18 1626
18.24 1591
18.3 1686
18.36 1609
18.42 1633
18.48 1550
18.54 1635
18.6 1675
18.66 1765
18.72 1716
18.78 1716
18.84 1720
18.9 1789
18.96 1671
19.02 1761
19.08 1750
19.14 1760
19.2 1662
19.26 1739
19.32 1673
19.38 1761
19.44 1668
19.5 1730
19.56 1726
19.62 1722
19.68 1732
19.74 1772
19.8 1767
19.86 1754
19.92 1818
19.98 1742
20 1750

File: 7-34.ASC
3 1768
3.06 1358
3.12 1239
3.18 1217
3.24 1050
3.3 1102
3.36 1053
3.42 1009
3.48 970
3.54 954
3.6 972
3.66 939
3.72 892
3.78 879
3.84 824
3.9 862
3.96 862
4.02 830
4.08 763
4.14 789
4.2 748
4.26 748
4.32 784
4.38 684
4.44 760
4.5 681
4.56 682
4.62 660
4.68 652
4.74 678
4.8 667
4.86 716
4.92 665
4.98 664
5.04 673
5.1 712
5.16 718
5.22 729
5.28 748
5.34 797
5.4 881
5.46 905
5.52 944
5.58 1006
5.64 1084
5.7 1092
5.76 1123
5.82 1203
5.88 1130
5.94 1156
6 1115
6.06 1065
6.12 934
6.18 917
6.24 896
6.3 818
6.36 811
6.42 781
6.48 730
6.54 750
6.6 727
6.66 724
6.72 735
6.78 682
6.84 738
6.9 702
6.96 701
7.02 723
7.08 701
7.14 701
7.2 756
7.26 704
7.32 710
7.38 701
7.44 723
7.5 759
7.56 685
7.62 676
7.68 718
7.74 693
7.8 657
7.86 635
7.92 647
7.98 632
8.04 637
8.1 600
8.16 600
8.22 569
8.28 571
8.34 576
8.4 541
8.46 565
8.52 540
8.58 577
8.64 579
8.7 535
8.76 534
8.82 519
8.88 541
8.94 538
9 514
9.06 509
9.12 522
9.18 559
9.24 552
9.3 546
9.36 558
9.42 524
9.48 579
9.54 589
9.6 641
9.66 602
9.72 615
9.78 542
9.84 496
9.9 457
9.96 508
10.02 487
10.08 478
10.14 481
10.2 484
10.26 527
10.32 482
10.38 541
10.44 503
10.5 480
10.56 522
10.62 481
10.68 446
10.74 483
10.8 510
10.86 525
10.92 541
10.98 495
11.04 502
11.1 551
11.16 529
11.22 568
11.28 521
11.34 469
11.4 529
11.46 555
11.52 496
11.58 481
11.64 518
11.7 494
11.76 501
11.82 509
11.88 478
11.94 485
12 482
12.06 491
12.12 490
12.18 466
12.24 465
12.3 492
12.36 486
12.42 501
12.48 494
12.54 457
12.6 466
12.66 451
12.72 489
12.78 448
12.84 477
12.9 498
12.96 461
13.02 506
13.08 479
13.14 450
13.2 467
13.26 460
13.32 446
13.38 450
13.44 464
13.5 441
13.56 475
13.62 463
13.68 465
13.74 497
13.8 477
13.86 475
13.92 501
13.98 496
14.04 517
14.1 507
14.16 497
14.22 474
14.28 487
14.34 519
14.4 521
14.46 516
14.52 535
14.58 482
14.64 531
14.7 541
14.76 518
14.82 477
14.88 538
14.94 536
15 492
15.06 503
15.12 535
15.18 567
15.24 580
15.3 525
15.36 548
15.42 533
15.48 575
15.54 499
15.6 530
15.66 551
15.72 542
15.78 523
15.84 597
15.9 568
15.96 583
16.02 610
16.08 596
16.14 544
16.2 589
16.26 597
16.32 584
16.38 588
16.44 619
16.5 584
16.56 624
16.62 591
16.68 644
16.74 595
16.8 630
16.86 631
16.92 633
16.98 665
17.04 712
17.1 674
17.16 686
17.22 733
17.28 692
17.34 668
17.4 668
17.46 731
17.52 733
17.58 731
17.64 691
17.7 745
17.76 763
17.82 752
17.88 770
17.94 750
18 737
18.06 767
18.12 724
18.18 728
18.24 735
18.3 797
18.36 755
18.42 829
18.48 831
18.54 810
18.6 819
18.66 795
18.72 742
18.78 829
18.84 831
18.9 858
18.96 857
19.02 894
19.08 852
19.14 905
19.2 912
19.26 849
19.32 934
19.38 917
19.44 902
19.5 937
19.56 910
19.62 918
19.68 919
19.74 966
19.8 947
19.86 956
19.92 952
19.98 939
20 959

File: 7-37.ASC
3 1876
3.06 1495
3.12 1281
3.18 1243
3.24 1160
3.3 1039
3.36 1048
3.42 1021
3.48 986
3.54 959
3.6 890
3.66 958
3.72 902
3.78 856
3.84 779
3.9 817
3.96 766
4.02 747
4.08 717
4.14 758
4.2 699
4.26 688
4.32 608
4.38 665
4.44 653
4.5 654
4.56 606
4.62 594
4.68 599
4.74 596
4.8 535
4.86 539
4.92 551
4.98 534
5.04 535
5.1 533
5.16 496
5.22 484
5.28 539
5.34 518
5.4 498
5.46 520
5.52 533
5.58 503
5.64 521
5.7 516
5.76 511
5.82 487
5.88 475
5.94 493
6 491
6.06 460
6.12 460
6.18 470
6.24 494
6.3 482
6.36 502
6.42 472
6.48 471
6.54 508
6.6 461
6.66 483
6.72 441
6.78 470
6.84 469
6.9 486
6.96 486
7.02 499
7.08 471
7.14 485
7.2 507
7.26 465
7.32 459
7.38 477
7.44 488
7.5 470
7.56 459
7.62 487
7.68 446
7.74 437
7.8 501
7.86 441
7.92 482
7.98 478
8.04 450
8.1 451
8.16 446
8.22 443
8.28 453
8.34 467
8.4 443
8.46 470
8.52 472
8.58 468
8.64 482
8.7 493
8.76 500
8.82 490
8.88 548
8.94 627
9 644
9.06 722
9.12 835
9.18 985
9.24 1161
9.3 1163
9.36 994
9.42 829
9.48 719
9.54 568
9.6 535
9.66 505
9.72 542
9.78 523
9.84 554
9.9 579
9.96 659
10.02 724
10.08 783
10.14 811
10.2 759
10.26 618
10.32 548
10.38 461
10.44 470
10.5 425
10.56 419
10.62 428
10.68 418
10.74 393
10.8 426
10.86 389
10.92 404
10.98 400
11.04 367
11.1 382
11.16 419
11.22 433
11.28 417
11.34 418
11.4 428
11.46 464
11.52 432
11.58 408
11.64 356
11.7 429
11.76 372
11.82 445
11.88 374
11.94 392
12 385
12.06 386
12.12 383
12.18 411
12.24 412
12.3 405
12.36 403
12.42 368
12.48 398
12.54 409
12.6 416
12.66 428
12.72 462
12.78 474
12.84 539
12.9 471
12.96 472
13.02 414
13.08 396
13.14 406
13.2 442
13.26 420
13.32 414
13.38 399
13.44 420
13.5 438
13.56 403
13.62 434
13.68 402
13.74 413
13.8 366
13.86 391
13.92 442
13.98 365
14.04 389
14.1 406
14.16 381
14.22 384
14.28 414
14.34 424
14.4 458
14.46 443
14.52 415
14.58 383
14.64 386
14.7 398
14.76 390
14.82 405
14.88 411
14.94 406
15 429
15.06 380
15.12 389
15.18 426
15.24 414
15.3 403
15.36 409
15.42 392
15.48 416
15.54 412
15.6 420
15.66 402
15.72 425
15.78 448
15.84 426
15.9 423
15.96 433
16.02 414
16.08 432
16.14 436
16.2 433
16.26 451
16.32 428
16.38 436
16.44 440
16.5 406
16.56 430
16.62 505
16.68 436
16.74 488
16.8 486
16.86 464
16.92 538
16.98 563
17.04 579
17.1 552
17.16 547
17.22 550
17.28 511
17.34 488
17.4 439
17.46 463
17.52 453
17.58 502
17.64 494
17.7 455
17.76 467
17.82 477
17.88 483
17.94 489
18 494
18.06 466
18.12 534
18.18 491
18.24 498
18.3 510
18.36 573
18.42 596
18.48 563
18.54 584
18.6 651
18.66 560
18.72 498
18.78 541
18.84 548
18.9 557
18.96 576
19.02 542
19.08 523
19.14 556
19.2 570
19.26 554
19.32 528
19.38 520
19.44 525
19.5 560
19.56 584
19.62 576
19.68 606
19.74 584
19.8 602
19.86 602
19.92 672
19.98 633
20 641

File: 7-38.ASC
3 2391
3.06 2084
3.12 1849
3.18 1771
3.24 1688
3.3 1615
3.36 1608
3.42 1599
3.48 1593
3.54 1532
3.6 1453
3.66 1485
3.72 1504
3.78 1469
3.84 1400
3.9 1424
3.96 1472
4.02 1338
4.08 1383
4.14 1358
4.2 1326
4.26 1338
4.32 1367
4.38 1279
4.44 1327
4.5 1337
4.56 1303
4.62 1291
4.68 1354
4.74 1267
4.8 1305
4.86 1241
4.92 1285
4.98 1368
5.04 1384
5.1 1392
5.16 1412
5.22 1441
5.28 1533
5.34 1645
5.4 1675
5.46 1665
5.52 1824
5.58 1796
5.64 1868
5.7 1816
5.76 1768
5.82 1651
5.88 1555
5.94 1409
6 1355
6.06 1297
6.12 1169
6.18 1140
6.24 1145
6.3 1098
6.36 1088
6.42 1146
6.48 1095
6.54 1085
6.6 1032
6.66 1081
6.72 1057
6.78 1045
6.84 1026
6.9 1001
6.96 991
7.02 1015
7.08 924
7.14 948
7.2 911
7.26 949
7.32 915
7.38 925
7.44 880
7.5 948
7.56 848
7.62 885
7.68 866
7.74 885
7.8 813
7.86 885
7.92 823
7.98 809
8.04 787
8.1 825
8.16 828
8.22 865
8.28 809
8.34 815
8.4 819
8.46 812
8.52 753
8.58 798
8.64 805
8.7 832
8.76 826
8.82 825
8.88 849
8.94 756
9 810
9.06 819
9.12 872
9.18 939
9.24 926
9.3 978
9.36 928
9.42 905
9.48 803
9.54 847
9.6 764
9.66 797
9.72 771
9.78 811
9.84 805
9.9 787
9.96 797
10.02 774
10.08 833
10.14 748
10.2 824
10.26 773
10.32 775
10.38 805
10.44 792
10.5 733
10.56 790
10.62 774
10.68 783
10.74 840
10.8 811
10.86 864
10.92 840
10.98 867
11.04 905
11.1 754
11.16 845
11.22 784
11.28 795
11.34 773
11.4 765
11.46 790
11.52 750
11.58 733
11.64 771
11.7 713
11.76 771
11.82 720
11.88 775
11.94 709
12 767
12.06 719
12.12 759
12.18 773
12.24 720
12.3 724
12.36 722
12.42 745
12.48 771
12.54 747
12.6 759
12.66 693
12.72 722
12.78 678
12.84 718
12.9 725
12.96 747
13.02 785
13.08 699
13.14 689
13.2 733
13.26 749
13.32 764
13.38 766
13.44 782
13.5 736
13.56 759
13.62 756
13.68 747
13.74 754
13.8 726
13.86 786
13.92 767
13.98 770
14.04 792
14.1 718
14.16 771
14.22 817
14.28 796
14.34 804
14.4 822
14.46 826
14.52 814
14.58 838
14.64 756
14.7 821
14.76 820
14.82 834
14.88 811
14.94 833
15 854
15.06 839
15.12 857
15.18 808
15.24 860
15.3 896
15.36 854
15.42 845
15.48 873
15.54 873
15.6 889
15.66 872
15.72 933
15.78 899
15.84 904
15.9 883
15.96 900
16.02 943
16.08 968
16.14 895
16.2 971
16.26 990
16.32 912
16.38 1008
16.44 989
16.5 1027
16.56 979
16.62 965
16.68 1029
16.74 1011
16.8 1073
16.86 1022
16.92 1022
16.98 1061
17.04 1033
17.1 989
17.16 1044
17.22 1058
17.28 1060
17.34 1147
17.4 1089
17.46 1057
17.52 1089
17.58 1067
17.64 1151
17.7 1142
17.76 1181
17.82 1146
17.88 1138
17.94 1199
18 1161
18.06 1242
18.12 1181
18.18 1231
18.24 1145
18.3 1199
18.36 1144
18.42 1209
18.48 1290
18.54 1164
18.6 1343
18.66 1246
18.72 1290
18.78 1343
18.84 1282
18.9 1233
18.96 1314
19.02 1336
19.08 1342
19.14 1368
19.2 1331
19.26 1335
19.32 1354
19.38 1386
19.44 1380
19.5 1452
19.56 1406
19.62 1423
19.68 1409
19.74 1450
19.8 1382
19.86 1362
19.92 1417
19.98 1433
20 1451

File: 7-39.ASC
3 1989
3.06 1722
3.12 1530
3.18 1432
3.24 1346
3.3 1307
3.36 1290
3.42 1256
3.48 1198
3.54 1194
3.6 1150
3.66 1060
3.72 1093
3.78 991
3.84 1020
3.9 1025
3.96 1023
4.02 962
4.08 909
4.14 934
4.2 901
4.26 848
4.32 869
4.38 854
4.44 855
4.5 869
4.56 839
4.62 811
4.68 823
4.74 813
4.8 831
4.86 852
4.92 810
4.98 873
5.04 908
5.1 911
5.16 1015
5.22 985
5.28 1095
5.34 1152
5.4 1193
5.46 1290
5.52 1390
5.58 1378
5.64 1413
5.7 1494
5.76 1563
5.82 1482
5.88 1433
5.94 1252
6 1051
6.06 972
6.12 919
6.18 797
6.24 824
6.3 793
6.36 801
6.42 753
6.48 859
6.54 798
6.6 780
6.66 799
6.72 779
6.78 713
6.84 721
6.9 794
6.96 703
7.02 724
7.08 680
7.14 713
7.2 681
7.26 690
7.32 651
7.38 619
7.44 678
7.5 672
7.56 637
7.62 664
7.68 656
7.74 635
7.8 637
7.86 596
7.92 630
7.98 608
8.04 557
8.1 596
8.16 556
8.22 608
8.28 611
8.34 592
8.4 620
8.46 552
8.52 556
8.58 624
8.64 608
8.7 538
8.76 565
8.82 604
8.88 649
8.94 634
9 679
9.06 729
9.12 786
9.18 878
9.24 1467
9.3 1901
9.36 1110
9.42 948
9.48 809
9.54 734
9.6 649
9.66 644
9.72 649
9.78 635
9.84 600
9.9 621
9.96 621
10.02 639
10.08 567
10.14 621
10.2 625
10.26 592
10.32 611
10.38 591
10.44 576
10.5 597
10.56 595
10.62 636
10.68 659
10.74 690
10.8 711
10.86 721
10.92 722
10.98 742
11.04 741
11.1 706
11.16 693
11.22 641
11.28 625
11.34 612
11.4 630
11.46 664
11.52 626
11.58 592
11.64 552
11.7 577
11.76 579
11.82 630
11.88 565
11.94 553
12 541
12.06 568
12.12 542
12.18 536
12.24 566
12.3 576
12.36 556
12.42 569
12.48 561
12.54 541
12.6 560
12.66 517
12.72 543
12.78 545
12.84 531
12.9 555
12.96 508
13.02 521
13.08 551
13.14 555
13.2 497
13.26 574
13.32 569
13.38 531
13.44 533
13.5 566
13.56 572
13.62 556
13.68 528
13.74 534
13.8 577
13.86 563
13.92 553
13.98 577
14.04 628
14.1 545
14.16 586
14.22 619
14.28 566
14.34 628
14.4 649
14.46 586
14.52 642
14.58 675
14.64 608
14.7 600
14.76 603
14.82 626
14.88 605
14.94 637
15 633
15.06 603
15.12 625
15.18 624
15.24 593
15.3 607
15.36 598
15.42 609
15.48 636
15.54 646
15.6 623
15.66 619
15.72 630
15.78 608
15.84 638
15.9 617
15.96 701
16.02 623
16.08 646
16.14 669
16.2 677
16.26 666
16.32 702
16.38 656
16.44 616
16.5 722
16.56 662
16.62 686
16.68 718
16.74 771
16.8 708
16.86 753
16.92 703
16.98 768
17.04 777
17.1 746
17.16 783
17.22 783
17.28 818
17.34 819
17.4 762
17.46 819
17.52 809
17.58 791
17.64 766
17.7 850
17.76 780
17.82 789
17.88 836
17.94 800
18 817
18.06 848
18.12 838
18.18 818
18.24 805
18.3 806
18.36 841
18.42 893
18.48 883
18.54 894
18.6 878
18.66 878
18.72 932
18.78 901
18.84 952
18.9 926
18.96 917
19.02 951
19.08 977
19.14 977
19.2 1017
19.26 1040
19.32 1010
19.38 1073
19.44 1128
19.5 1092
19.56 1124
19.62 1126
19.68 1103
19.74 1071
19.8 1131
19.86 1102
19.92 1078
19.98 1076
20 1043

File: 8-18.ASC
3 2315
3.06 1851
3.12 1671
3.18 1619
3.24 1484
3.3 1416
3.36 1416
3.42 1379
3.48 1371
3.54 1300
3.6 1258
3.66 1241
3.72 1241
3.78 1228
3.84 1107
3.9 1132
3.96 1114
4.02 1052
4.08 1028
4.14 1035
4.2 1032
4.26 974
4.32 986
4.38 993
4.44 927
4.5 901
4.56 900
4.62 867
4.68 898
4.74 844
4.8 821
4.86 857
4.92 849
4.98 793
5.04 818
5.1 809
5.16 831
5.22 782
5.28 806
5.34 730
5.4 764
5.46 798
5.52 796
5.58 787
5.64 762
5.7 763
5.76 750
5.82 785
5.88 764
5.94 723
6 740
6.06 738
6.12 766
6.18 743
6.24 698
6.3 696
6.36 742
6.42 718
6.48 727
6.54 757
6.6 701
6.66 795
6.72 779
6.78 742
6.84 688
6.9 695
6.96 729
7.02 732
7.08 729
7.14 735
7.2 759
7.26 676
7.32 690
7.38 723
7.44 681
7.5 702
7.56 707
7.62 663
7.68 640
7.74 676
7.8 702
7.86 699
7.92 718
7.98 630
8.04 732
8.1 643
8.16 673
8.22 662
8.28 690
8.34 692
8.4 649
8.46 667
8.52 656
8.58 715
8.64 679
8.7 642
8.76 662
8.82 660
8.88 644
8.94 643
9 624
9.06 638
9.12 659
9.18 652
9.24 669
9.3 652
9.36 625
9.42 624
9.48 667
9.54 684
9.6 622
9.66 672
9.72 668
9.78 616
9.84 632
9.9 594
9.96 599
10.02 642
10.08 619
10.14 607
10.2 642
10.26 597
10.32 635
10.38 638
10.44 614
10.5 630
10.56 600
10.62 596
10.68 629
10.74 672
10.8 624
10.86 573
10.92 602
10.98 585
11.04 601
11.1 597
11.16 594
11.22 575
11.28 594
11.34 593
11.4 640
11.46 637
11.52 628
11.58 589
11.64 513
11.7 555
11.76 593
11.82 649
11.88 567
11.94 594
12 637
12.06 611
12.12 592
12.18 640
12.24 556
12.3 599
12.36 586
12.42 588
12.48 578
12.54 623
12.6 587
12.66 580
12.72 533
12.78 610
12.84 592
12.9 603
12.96 567
13.02 584
13.08 559
13.14 583
13.2 638
13.26 647
13.32 621
13.38 584
13.44 617
13.5 625
13.56 626
13.62 616
13.68 624
13.74 635
13.8 645
13.86 599
13.92 592
13.98 601
14.04 651
14.1 632
14.16 673
14.22 643
14.28 638
14.34 616
14.4 610
14.46 653
14.52 599
14.58 638
14.64 581
14.7 647
14.76 591
14.82 619
14.88 635
14.94 667
15 678
15.06 648
15.12 652
15.18 648
15.24 722
15.3 669
15.36 665
15.42 662
15.48 708
15.54 669
15.6 690
15.66 691
15.72 723
15.78 703
15.84 750
15.9 735
15.96 748
16.02 706
16.08 743
16.14 714
16.2 717
16.26 778
16.32 738
16.38 748
16.44 746
16.5 766
16.56 743
16.62 805
16.68 862
16.74 939
16.8 1130
16.86 1674
16.92 2019
16.98 2072
17.04 2077
17.1 1730
17.16 1416
17.22 1211
17.28 953
17.34 889
17.4 834
17.46 873
17.52 902
17.58 896
17.64 899
17.7 811
17.76 878
17.82 884
17.88 881
17.94 954
18 921
18.06 944
18.12 951
18.18 949
18.24 1003
18.3 1023
18.36 962
18.42 963
18.48 957
18.54 1000
18.6 1012
18.66 995
18.72 1008
18.78 1061
18.84 1031
18.9 1021
18.96 1025
19.02 1027
19.08 1056
19.14 1032
19.2 1038
19.26 1063
19.32 1069
19.38 1093
19.44 1028
19.5 1056
19.56 1064
19.62 1099
19.68 1109
19.74 1112
19.8 1082
19.86 1089
19.92 1131
19.98 1155
20 1175