Folder: CPC-code/xrd-UiO-67/pxrddata (part 22)

File: 45-7.ASC
3 2265
3.06 1741
3.12 1543
3.18 1501
3.24 1394
3.3 1430
3.36 1369
3.42 1331
3.48 1233
3.54 1223
3.6 1127
3.66 1132
3.72 1138
3.78 1093
3.84 1077
3.9 1054
3.96 967
4.02 1003
4.08 928
4.14 866
4.2 878
4.26 890
4.32 833
4.38 848
4.44 819
4.5 839
4.56 815
4.62 807
4.68 774
4.74 755
4.8 723
4.86 761
4.92 707
4.98 729
5.04 730
5.1 691
5.16 635
5.22 709
5.28 684
5.34 777
5.4 712
5.46 692
5.52 691
5.58 669
5.64 689
5.7 625
5.76 670
5.82 658
5.88 707
5.94 668
6 737
6.06 675
6.12 658
6.18 640
6.24 675
6.3 682
6.36 699
6.42 693
6.48 686
6.54 702
6.6 723
6.66 708
6.72 695
6.78 680
6.84 750
6.9 711
6.96 718
7.02 665
7.08 738
7.14 678
7.2 736
7.26 696
7.32 698
7.38 685
7.44 730
7.5 717
7.56 789
7.62 743
7.68 783
7.74 771
7.8 742
7.86 809
7.92 850
7.98 785
8.04 789
8.1 778
8.16 754
8.22 759
8.28 790
8.34 798
8.4 885
8.46 895
8.52 895
8.58 907
8.64 961
8.7 1011
8.76 1121
8.82 1244
8.88 1469
8.94 1707
9 1855
9.06 1692
9.12 1575
9.18 1448
9.24 1296
9.3 1340
9.36 1367
9.42 1143
9.48 1072
9.54 1025
9.6 1030
9.66 1153
9.72 1206
9.78 1226
9.84 1395
9.9 1699
9.96 1933
10.02 2057
10.08 1610
10.14 1319
10.2 1137
10.26 1047
10.32 1017
10.38 1012
10.44 980
10.5 918
10.56 951
10.62 925
10.68 957
10.74 921
10.8 903
10.86 927
10.92 917
10.98 872
11.04 819
11.1 792
11.16 721
11.22 739
11.28 737
11.34 759
11.4 698
11.46 707
11.52 691
11.58 710
11.64 702
11.7 696
11.76 722
11.82 723
11.88 720
11.94 706
12 723
12.06 714
12.12 664
12.18 701
12.24 738
12.3 766
12.36 770
12.42 827
12.48 848
12.54 1062
12.6 1154
12.66 1250
12.72 1202
12.78 1022
12.84 861
12.9 807
12.96 792
13.02 786
13.08 800
13.14 818
13.2 826
13.26 804
13.32 806
13.38 821
13.44 815
13.5 757
13.56 771
13.62 781
13.68 788
13.74 772
13.8 755
13.86 766
13.92 740
13.98 746
14.04 825
14.1 781
14.16 784
14.22 788
14.28 767
14.34 838
14.4 781
14.46 832
14.52 854
14.58 895
14.64 829
14.7 826
14.76 838
14.82 868
14.88 841
14.94 803
15 830
15.06 828
15.12 859
15.18 846
15.24 891
15.3 836
15.36 865
15.42 831
15.48 907
15.54 875
15.6 823
15.66 873
15.72 870
15.78 871
15.84 889
15.9 895
15.96 909
16.02 941
16.08 914
16.14 921
16.2 930
16.26 930
16.32 931
16.38 943
16.44 981
16.5 981
16.56 986
16.62 1002
16.68 1043
16.74 1095
16.8 1120
16.86 1245
16.92 1492
16.98 1920
17.04 1871
17.1 1268
17.16 1132
17.22 1107
17.28 1142
17.34 1102
17.4 1108
17.46 1120
17.52 1082
17.58 1125
17.64 1146
17.7 1103
17.76 1180
17.82 1181
17.88 1189
17.94 1206
18 1197
18.06 1262
18.12 1240
18.18 1242
18.24 1335
18.3 1255
18.36 1257
18.42 1300
18.48 1321
18.54 1306
18.6 1369
18.66 1391
18.72 1381
18.78 1352
18.84 1348
18.9 1344
18.96 1301
19.02 1382
19.08 1416
19.14 1383
19.2 1377
19.26 1440
19.32 1457
19.38 1475
19.44 1460
19.5 1509
19.56 1461
19.62 1563
19.68 1497
19.74 1592
19.8 1647
19.86 1654
19.92 1684
19.98 1842
20 1844

File: 45-8.ASC
3 2208
3.06 1772
3.12 1646
3.18 1497
3.24 1487
3.3 1402
3.36 1357
3.42 1320
3.48 1234
3.54 1214
3.6 1183
3.66 1167
3.72 1154
3.78 1082
3.84 1054
3.9 1025
3.96 1004
4.02 1004
4.08 932
4.14 949
4.2 898
4.26 877
4.32 886
4.38 910
4.44 849
4.5 834
4.56 816
4.62 855
4.68 825
4.74 836
4.8 828
4.86 724
4.92 781
4.98 805
5.04 750
5.1 769
5.16 758
5.22 722
5.28 715
5.34 721
5.4 702
5.46 690
5.52 735
5.58 718
5.64 681
5.7 690
5.76 676
5.82 673
5.88 697
5.94 693
6 676
6.06 723
6.12 734
6.18 700
6.24 679
6.3 647
6.36 690
6.42 669
6.48 692
6.54 637
6.6 666
6.66 681
6.72 655
6.78 632
6.84 659
6.9 633
6.96 656
7.02 658
7.08 649
7.14 600
7.2 650
7.26 627
7.32 644
7.38 650
7.44 677
7.5 652
7.56 644
7.62 671
7.68 696
7.74 640
7.8 629
7.86 636
7.92 638
7.98 694
8.04 634
8.1 654
8.16 637
8.22 599
8.28 658
8.34 611
8.4 659
8.46 599
8.52 627
8.58 621
8.64 662
8.7 658
8.76 639
8.82 602
8.88 624
8.94 609
9 648
9.06 639
9.12 594
9.18 603
9.24 657
9.3 611
9.36 580
9.42 629
9.48 618
9.54 622
9.6 644
9.66 623
9.72 574
9.78 589
9.84 685
9.9 605
9.96 634
10.02 602
10.08 659
10.14 623
10.2 584
10.26 650
10.32 594
10.38 607
10.44 653
10.5 605
10.56 627
10.62 641
10.68 587
10.74 611
10.8 624
10.86 605
10.92 602
10.98 556
11.04 629
11.1 624
11.16 662
11.22 640
11.28 622
11.34 552
11.4 558
11.46 598
11.52 603
11.58 610
11.64 621
11.7 601
11.76 596
11.82 606
11.88 636
11.94 591
12 637
12.06 592
12.12 577
12.18 603
12.24 582
12.3 607
12.36 580
12.42 618
12.48 633
12.54 639
12.6 626
12.66 647
12.72 618
12.78 628
12.84 623
12.9 620
12.96 594
13.02 650
13.08 642
13.14 624
13.2 649
13.26 647
13.32 641
13.38 635
13.44 664
13.5 657
13.56 640
13.62 711
13.68 608
13.74 669
13.8 619
13.86 621
13.92 630
13.98 625
14.04 634
14.1 654
14.16 670
14.22 670
14.28 750
14.34 650
14.4 658
14.46 709
14.52 694
14.58 699
14.64 696
14.7 708
14.76 674
14.82 682
14.88 662
14.94 678
15 713
15.06 734
15.12 700
15.18 748
15.24 702
15.3 711
15.36 724
15.42 734
15.48 704
15.54 725
15.6 773
15.66 758
15.72 773
15.78 752
15.84 747
15.9 732
15.96 784
16.02 758
16.08 772
16.14 744
16.2 809
16.26 781
16.32 759
16.38 763
16.44 866
16.5 884
16.56 862
16.62 864
16.68 855
16.74 925
16.8 975
16.86 1253
16.92 1618
16.98 1732
17.04 1288
17.1 1006
17.16 896
17.22 927
17.28 838
17.34 932
17.4 934
17.46 906
17.52 891
17.58 959
17.64 949
17.7 932
17.76 989
17.82 918
17.88 954
17.94 993
18 1010
18.06 1042
18.12 998
18.18 987
18.24 1078
18.3 1046
18.36 1081
18.42 1060
18.48 1061
18.54 1037
18.6 1070
18.66 1056
18.72 1153
18.78 1136
18.84 1103
18.9 1223
18.96 1165
19.02 1173
19.08 1167
19.14 1201
19.2 1108
19.26 1222
19.32 1207
19.38 1152
19.44 1184
19.5 1240
19.56 1204
19.62 1314
19.68 1243
19.74 1350
19.8 1263
19.86 1240
19.92 1327
19.98 1261
20 1281

File: 45-9.ASC
3 2335
3.06 1931
3.12 1609
3.18 1550
3.24 1472
3.3 1398
3.36 1351
3.42 1275
3.48 1277
3.54 1221
3.6 1238
3.66 1151
3.72 1097
3.78 1097
3.84 1076
3.9 976
3.96 1067
4.02 968
4.08 908
4.14 962
4.2 910
4.26 889
4.32 848
4.38 798
4.44 779
4.5 743
4.56 786
4.62 753
4.68 734
4.74 739
4.8 707
4.86 710
4.92 661
4.98 726
5.04 681
5.1 704
5.16 605
5.22 651
5.28 653
5.34 611
5.4 652
5.46 610
5.52 637
5.58 629
5.64 613
5.7 617
5.76 677
5.82 637
5.88 617
5.94 610
6 649
6.06 605
6.12 587
6.18 584
6.24 605
6.3 623
6.36 626
6.42 604
6.48 594
6.54 584
6.6 613
6.66 606
6.72 614
6.78 598
6.84 579
6.9 620
6.96 597
7.02 607
7.08 587
7.14 636
7.2 600
7.26 624
7.32 616
7.38 575
7.44 591
7.5 641
7.56 586
7.62 599
7.68 627
7.74 614
7.8 594
7.86 590
7.92 603
7.98 656
8.04 585
8.1 602
8.16 626
8.22 633
8.28 628
8.34 612
8.4 630
8.46 668
8.52 647
8.58 684
8.64 782
8.7 859
8.76 863
8.82 1089
8.88 1118
8.94 1181
9 1074
9.06 876
9.12 842
9.18 803
9.24 805
9.3 777
9.36 731
9.42 679
9.48 715
9.54 725
9.6 777
9.66 759
9.72 808
9.78 926
9.84 1009
9.9 1214
9.96 1149
10.02 940
10.08 776
10.14 758
10.2 637
10.26 616
10.32 626
10.38 647
10.44 625
10.5 611
10.56 606
10.62 636
10.68 603
10.74 617
10.8 617
10.86 554
10.92 582
10.98 562
11.04 569
11.1 595
11.16 558
11.22 568
11.28 575
11.34 504
11.4 565
11.46 593
11.52 541
11.58 608
11.64 537
11.7 549
11.76 568
11.82 575
11.88 573
11.94 569
12 525
12.06 534
12.12 558
12.18 551
12.24 564
12.3 563
12.36 580
12.42 643
12.48 628
12.54 719
12.6 766
12.66 712
12.72 699
12.78 666
12.84 574
12.9 600
12.96 607
13.02 581
13.08 605
13.14 591
13.2 584
13.26 645
13.32 633
13.38 638
13.44 566
13.5 611
13.56 596
13.62 556
13.68 582
13.74 596
13.8 563
13.86 596
13.92 616
13.98 580
14.04 563
14.1 588
14.16 599
14.22 614
14.28 582
14.34 619
14.4 612
14.46 637
14.52 611
14.58 616
14.64 624
14.7 597
14.76 612
14.82 655
14.88 665
14.94 672
15 612
15.06 600
15.12 590
15.18 577
15.24 639
15.3 608
15.36 637
15.42 589
15.48 627
15.54 590
15.6 645
15.66 662
15.72 630
15.78 641
15.84 686
15.9 654
15.96 654
16.02 659
16.08 688
16.14 676
16.2 653
16.26 661
16.32 677
16.38 718
16.44 699
16.5 691
16.56 727
16.62 726
16.68 781
16.74 790
16.8 852
16.86 1012
16.92 1314
16.98 1364
17.04 908
17.1 787
17.16 753
17.22 771
17.28 694
17.34 750
17.4 778
17.46 809
17.52 758
17.58 778
17.64 814
17.7 766
17.76 816
17.82 791
17.88 848
17.94 768
18 832
18.06 833
18.12 860
18.18 841
18.24 855
18.3 841
18.36 846
18.42 867
18.48 910
18.54 886
18.6 845
18.66 848
18.72 879
18.78 861
18.84 925
18.9 865
18.96 934
19.02 882
19.08 886
19.14 889
19.2 880
19.26 951
19.32 902
19.38 922
19.44 983
19.5 900
19.56 962
19.62 961
19.68 961
19.74 913
19.8 1072
19.86 1119
19.92 1134
19.98 1028
20 1094

File: 45-11.ASC
3 2333
3.06 1856
3.12 1652
3.18 1595
3.24 1501
3.3 1455
3.36 1296
3.42 1294
3.48 1254
3.54 1256
3.6 1119
3.66 1113
3.72 1164
3.78 1083
3.84 1082
3.9 961
3.96 1010
4.02 1011
4.08 1080
4.14 1027
4.2 871
4.26 853
4.32 858
4.38 837
4.44 790
4.5 793
4.56 784
4.62 802
4.68 769
4.74 776
4.8 805
4.86 761
4.92 785
4.98 724
5.04 705
5.1 787
5.16 848
5.22 919
5.28 923
5.34 989
5.4 1224
5.46 1297
5.52 1305
5.58 1501
5.64 1914
5.7 2639
5.76 4655
5.82 3188
5.88 1123
5.94 852
6 744
6.06 705
6.12 771
6.18 761
6.24 752
6.3 753
6.36 833
6.42 867
6.48 999
6.54 1193
6.6 1532
6.66 2011
6.72 1165
6.78 1011
6.84 801
6.9 652
6.96 585
7.02 612
7.08 609
7.14 614
7.2 586
7.26 589
7.32 581
7.38 659
7.44 567
7.5 584
7.56 588
7.62 585
7.68 606
7.74 602
7.8 565
7.86 558
7.92 571
7.98 567
8.04 560
8.1 580
8.16 546
8.22 571
8.28 570
8.34 580
8.4 600
8.46 567
8.52 560
8.58 559
8.64 574
8.7 531
8.76 609
8.82 565
8.88 616
8.94 580
9 626
9.06 630
9.12 688
9.18 764
9.24 946
9.3 1147
9.36 1847
9.42 1354
9.48 719
9.54 602
9.6 562
9.66 577
9.72 551
9.78 574
9.84 544
9.9 570
9.96 577
10.02 539
10.08 558
10.14 594
10.2 621
10.26 589
10.32 528
10.38 564
10.44 563
10.5 560
10.56 576
10.62 571
10.68 641
10.74 672
10.8 779
10.86 847
10.92 1045
10.98 1499
11.04 1069
11.1 759
11.16 690
11.22 662
11.28 610
11.34 647
11.4 763
11.46 968
11.52 941
11.58 647
11.64 597
11.7 570
11.76 555
11.82 487
11.88 510
11.94 518
12 524
12.06 513
12.12 515
12.18 546
12.24 514
12.3 581
12.36 503
12.42 519
12.48 552
12.54 533
12.6 486
12.66 541
12.72 490
12.78 482
12.84 549
12.9 510
12.96 515
13.02 569
13.08 542
13.14 576
13.2 587
13.26 609
13.32 650
13.38 606
13.44 565
13.5 560
13.56 556
13.62 547
13.68 559
13.74 575
13.8 522
13.86 542
13.92 553
13.98 560
14.04 571
14.1 520
14.16 601
14.22 564
14.28 583
14.34 608
14.4 650
14.46 747
14.52 614
14.58 607
14.64 600
14.7 653
14.76 602
14.82 659
14.88 641
14.94 622
15 551
15.06 639
15.12 622
15.18 638
15.24 657
15.3 629
15.36 614
15.42 600
15.48 601
15.54 651
15.6 626
15.66 630
15.72 698
15.78 652
15.84 644
15.9 659
15.96 665
16.02 673
16.08 669
16.14 708
16.2 686
16.26 702
16.32 691
16.38 696
16.44 711
16.5 742
16.56 673
16.62 681
16.68 723
16.74 739
16.8 741
16.86 831
16.92 942
16.98 1238
17.04 1104
17.1 861
17.16 830
17.22 863
17.28 819
17.34 799
17.4 818
17.46 786
17.52 831
17.58 793
17.64 779
17.7 842
17.76 843
17.82 854
17.88 844
17.94 857
18 872
18.06 878
18.12 865
18.18 827
18.24 864
18.3 955
18.36 904
18.42 870
18.48 874
18.54 910
18.6 878
18.66 880
18.72 940
18.78 897
18.84 973
18.9 940
18.96 937
19.02 973
19.08 921
19.14 1061
19.2 996
19.26 1047
19.32 1007
19.38 1056
19.44 1137
19.5 1201
19.56 1299
19.62 1388
19.68 1262
19.74 1165
19.8 1249
19.86 1433
19.92 1492
19.98 1323
20 1179

File: 45-13.ASC
3 2186
3.06 1749
3.12 1550
3.18 1407
3.24 1394
3.3 1267
3.36 1330
3.42 1218
3.48 1276
3.54 1103
3.6 1084
3.66 1141
3.72 1072
3.78 987
3.84 1031
3.9 1005
3.96 936
4.02 981
4.08 903
4.14 897
4.2 874
4.26 821
4.32 828
4.38 826
4.44 844
4.5 816
4.56 834
4.62 805
4.68 775
4.74 832
4.8 802
4.86 847
4.92 889
4.98 897
5.04 995
5.1 1061
5.16 1220
5.22 1323
5.28 1671
5.34 2175
5.4 3014
5.46 4250
5.52 3394
5.58 2116
5.64 1604
5.7 1344
5.76 1185
5.82 1016
5.88 923
5.94 909
6 825
6.06 777
6.12 718
6.18 689
6.24 641
6.3 635
6.36 620
6.42 624
6.48 665
6.54 641
6.6 642
6.66 620
6.72 574
6.78 645
6.84 580
6.9 595
6.96 590
7.02 619
7.08 575
7.14 562
7.2 599
7.26 573
7.32 610
7.38 572
7.44 598
7.5 575
7.56 571
7.62 585
7.68 562
7.74 593
7.8 575
7.86 551
7.92 570
7.98 561
8.04 592
8.1 572
8.16 548
8.22 592
8.28 534
8.34 542
8.4 582
8.46 567
8.52 571
8.58 513
8.64 523
8.7 549
8.76 554
8.82 566
8.88 535
8.94 604
9 582
9.06 640
9.12 660
9.18 759
9.24 872
9.3 1074
9.36 1499
9.42 1278
9.48 828
9.54 729
9.6 651
9.66 610
9.72 568
9.78 604
9.84 575
9.9 589
9.96 557
10.02 556
10.08 563
10.14 529
10.2 565
10.26 556
10.32 564
10.38 545
10.44 620
10.5 582
10.56 591
10.62 647
10.68 665
10.74 752
10.8 1001
10.86 979
10.92 891
10.98 750
11.04 700
11.1 636
11.16 573
11.22 598
11.28 525
11.34 541
11.4 626
11.46 565
11.52 548
11.58 570
11.64 588
11.7 595
11.76 566
11.82 545
11.88 501
11.94 541
12 539
12.06 528
12.12 536
12.18 593
12.24 579
12.3 612
12.36 615
12.42 629
12.48 601
12.54 567
12.6 613
12.66 564
12.72 544
12.78 563
12.84 576
12.9 615
12.96 552
13.02 602
13.08 591
13.14 556
13.2 538
13.26 603
13.32 565
13.38 602
13.44 629
13.5 588
13.56 627
13.62 580
13.68 599
13.74 583
13.8 602
13.86 543
13.92 591
13.98 583
14.04 648
14.1 608
14.16 593
14.22 587
14.28 686
14.34 697
14.4 642
14.46 623
14.52 653
14.58 671
14.64 619
14.7 632
14.76 628
14.82 652
14.88 635
14.94 633
15 619
15.06 640
15.12 638
15.18 643
15.24 669
15.3 664
15.36 651
15.42 656
15.48 678
15.54 662
15.6 652
15.66 679
15.72 727
15.78 672
15.84 705
15.9 690
15.96 709
16.02 708
16.08 667
16.14 719
16.2 724
16.26 718
16.32 721
16.38 785
16.44 756
16.5 686
16.56 737
16.62 751
16.68 738
16.74 778
16.8 785
16.86 816
16.92 890
16.98 959
17.04 983
17.1 858
17.16 817
17.22 861
17.28 782
17.34 853
17.4 898
17.46 847
17.52 818
17.58 831
17.64 846
17.7 858
17.76 805
17.82 882
17.88 869
17.94 817
18 868
18.06 879
18.12 871
18.18 864
18.24 876
18.3 934
18.36 926
18.42 895
18.48 885
18.54 932
18.6 972
18.66 1018
18.72 1013
18.78 1031
18.84 975
18.9 1027
18.96 1000
19.02 1028
19.08 1050
19.14 1003
19.2 1034
19.26 1027
19.32 1208
19.38 1112
19.44 1318
19.5 1310
19.56 1218
19.62 1215
19.68 1142
19.74 1149
19.8 1114
19.86 1121
19.92 1106
19.98 1116
20 1187

File: 45-17.ASC
3 2396
3.06 2072
3.12 1677
3.18 1634
3.24 1514
3.3 1556
3.36 1438
3.42 1410
3.48 1297
3.54 1298
3.6 1266
3.66 1157
3.72 1197
3.78 1176
3.84 1070
3.9 1067
3.96 982
4.02 1022
4.08 990
4.14 983
4.2 965
4.26 878
4.32 892
4.38 882
4.44 812
4.5 820
4.56 814
4.62 828
4.68 804
4.74 763
4.8 786
4.86 743
4.92 721
4.98 684
5.04 704
5.1 701
5.16 701
5.22 688
5.28 696
5.34 688
5.4 665
5.46 684
5.52 668
5.58 622
5.64 681
5.7 618
5.76 663
5.82 637
5.88 671
5.94 633
6 618
6.06 619
6.12 671
6.18 645
6.24 672
6.3 654
6.36 622
6.42 620
6.48 621
6.54 623
6.6 645
6.66 667
6.72 645
6.78 638
6.84 654
6.9 594
6.96 618
7.02 647
7.08 626
7.14 607
7.2 638
7.26 632
7.32 618
7.38 619
7.44 663
7.5 629
7.56 612
7.62 662
7.68 579
7.74 660
7.8 645
7.86 656
7.92 647
7.98 710
8.04 659
8.1 643
8.16 636
8.22 670
8.28 661
8.34 699
8.4 708
8.46 725
8.52 796
8.58 749
8.64 858
8.7 903
8.76 1063
8.82 1214
8.88 1476
8.94 1517
9 1530
9.06 1102
9.12 965
9.18 933
9.24 891
9.3 942
9.36 912
9.42 825
9.48 817
9.54 802
9.6 836
9.66 863
9.72 962
9.78 1045
9.84 1227
9.9 1506
9.96 1391
10.02 1187
10.08 970
10.14 916
10.2 817
10.26 737
10.32 682
10.38 703
10.44 698
10.5 681
10.56 662
10.62 654
10.68 655
10.74 654
10.8 696
10.86 663
10.92 647
10.98 613
11.04 640
11.1 602
11.16 581
11.22 618
11.28 543
11.34 563
11.4 618
11.46 557
11.52 550
11.58 586
11.64 601
11.7 582
11.76 582
11.82 577
11.88 635
11.94 562
12 544
12.06 583
12.12 585
12.18 607
12.24 566
12.3 592
12.36 599
12.42 601
12.48 633
12.54 743
12.6 875
12.66 863
12.72 753
12.78 686
12.84 629
12.9 632
12.96 606
13.02 610
13.08 654
13.14 653
13.2 643
13.26 717
13.32 760
13.38 818
13.44 710
13.5 661
13.56 638
13.62 668
13.68 640
13.74 592
13.8 623
13.86 601
13.92 608
13.98 641
14.04 613
14.1 621
14.16 584
14.22 625
14.28 600
14.34 599
14.4 613
14.46 647
14.52 676
14.58 628
14.64 684
14.7 612
14.76 657
14.82 677
14.88 629
14.94 670
15 659
15.06 630
15.12 639
15.18 653
15.24 636
15.3 694
15.36 675
15.42 697
15.48 693
15.54 697
15.6 663
15.66 625
15.72 681
15.78 681
15.84 685
15.9 721
15.96 664
16.02 638
16.08 711
16.14 726
16.2 678
16.26 731
16.32 709
16.38 668
16.44 789
16.5 759
16.56 757
16.62 771
16.68 766
16.74 888
16.8 921
16.86 1139
16.92 1469
16.98 1789
17.04 1325
17.1 890
17.16 859
17.22 790
17.28 757
17.34 799
17.4 826
17.46 814
17.52 809
17.58 825
17.64 804
17.7 845
17.76 851
17.82 861
17.88 809
17.94 837
18 858
18.06 889
18.12 855
18.18 826
18.24 851
18.3 898
18.36 919
18.42 911
18.48 893
18.54 973
18.6 930
18.66 920
18.72 942
18.78 880
18.84 933
18.9 915
18.96 944
19.02 893
19.08 976
19.14 1005
19.2 913
19.26 941
19.32 935
19.38 985
19.44 979
19.5 1006
19.56 999
19.62 1069
19.68 1104
19.74 1091
19.8 1174
19.86 1190
19.92 1193
19.98 1145
20 1167

File: 45-18.ASC
3 2173
3.06 1772
3.12 1550
3.18 1394
3.24 1411
3.3 1231
3.36 1280
3.42 1235
3.48 1192
3.54 1202
3.6 1155
3.66 1072
3.72 1035
3.78 1029
3.84 974
3.9 986
3.96 941
4.02 885
4.08 892
4.14 889
4.2 826
4.26 838
4.32 835
4.38 757
4.44 737
4.5 808
4.56 761
4.62 764
4.68 784
4.74 732
4.8 735
4.86 726
4.92 705
4.98 647
5.04 684
5.1 713
5.16 676
5.22 672
5.28 670
5.34 679
5.4 663
5.46 666
5.52 656
5.58 666
5.64 659
5.7 662
5.76 666
5.82 639
5.88 712
5.94 631
6 629
6.06 683
6.12 721
6.18 704
6.24 692
6.3 706
6.36 686
6.42 705
6.48 810
6.54 690
6.6 714
6.66 753
6.72 804
6.78 802
6.84 832
6.9 779
6.96 819
7.02 803
7.08 794
7.14 821
7.2 813
7.26 723
7.32 754
7.38 766
7.44 737
7.5 721
7.56 723
7.62 732
7.68 715
7.74 699
7.8 722
7.86 734
7.92 701
7.98 762
8.04 716
8.1 757
8.16 769
8.22 782
8.28 775
8.34 786
8.4 853
8.46 875
8.52 908
8.58 961
8.64 1109
8.7 1265
8.76 1433
8.82 1694
8.88 2118
8.94 2672
9 2429
9.06 2150
9.12 1934
9.18 1713
9.24 1696
9.3 1626
9.36 1586
9.42 1439
9.48 1273
9.54 1255
9.6 1204
9.66 1363
9.72 1493
9.78 1637
9.84 1893
9.9 2215
9.96 2515
10.02 2326
10.08 1701
10.14 1393
10.2 1222
10.26 1124
10.32 1047
10.38 1048
10.44 1019
10.5 1011
10.56 964
10.62 979
10.68 1046
10.74 1039
10.8 1073
10.86 1049
10.92 989
10.98 891
11.04 802
11.1 777
11.16 738
11.22 708
11.28 717
11.34 716
11.4 639
11.46 634
11.52 653
11.58 647
11.64 583
11.7 626
11.76 586
11.82 604
11.88 607
11.94 645
12 604
12.06 592
12.12 660
12.18 608
12.24 629
12.3 646
12.36 717
12.42 788
12.48 922
12.54 1147
12.6 1356
12.66 1384
12.72 1200
12.78 960
12.84 814
12.9 725
12.96 740
13.02 670
13.08 649
13.14 667
13.2 709
13.26 672
13.32 668
13.38 710
13.44 660
13.5 633
13.56 635
13.62 602
13.68 613
13.74 604
13.8 608
13.86 644
13.92 639
13.98 646
14.04 609
14.1 644
14.16 625
14.22 635
14.28 668
14.34 679
14.4 679
14.46 703
14.52 675
14.58 682
14.64 702
14.7 697
14.76 691
14.82 649
14.88 661
14.94 627
15 613
15.06 616
15.12 668
15.18 663
15.24 638
15.3 658
15.36 636
15.42 632
15.48 670
15.54 659
15.6 634
15.66 697
15.72 650
15.78 680
15.84 627
15.9 668
15.96 700
16.02 690
16.08 663
16.14 678
16.2 691
16.26 662
16.32 686
16.38 760
16.44 745
16.5 732
16.56 676
16.62 728
16.68 754
16.74 805
16.8 929
16.86 1017
16.92 1288
16.98 1430
17.04 1202
17.1 868
17.16 756
17.22 769
17.28 764
17.34 754
17.4 752
17.46 762
17.52 760
17.58 747
17.64 790
17.7 871
17.76 807
17.82 831
17.88 882
17.94 827
18 828
18.06 845
18.12 864
18.18 899
18.24 883
18.3 953
18.36 932
18.42 908
18.48 896
18.54 876
18.6 969
18.66 920
18.72 932
18.78 930
18.84 956
18.9 906
18.96 924
19.02 915
19.08 937
19.14 903
19.2 941
19.26 957
19.32 942
19.38 970
19.44 944
19.5 958
19.56 986
19.62 1025
19.68 1028
19.74 1002
19.8 1015
19.86 1203
19.92 1246
19.98 1246
20 1211

File: 45-20.ASC
3 2234
3.06 1873
3.12 1583
3.18 1519
3.24 1388
3.3 1395
3.36 1352
3.42 1296
3.48 1215
3.54 1256
3.6 1143
3.66 1145
3.72 1088
3.78 1106
3.84 1030
3.9 995
3.96 960
4.02 951
4.08 910
4.14 938
4.2 898
4.26 849
4.32 828
4.38 820
4.44 828
4.5 815
4.56 770
4.62 775
4.68 752
4.74 774
4.8 709
4.86 700
4.92 692
4.98 747
5.04 711
5.1 698
5.16 705
5.22 708
5.28 714
5.34 675
5.4 715
5.46 669
5.52 624
5.58 642
5.64 674
5.7 674
5.76 664
5.82 638
5.88 627
5.94 628
6 616
6.06 626
6.12 644
6.18 690
6.24 656
6.3 639
6.36 621
6.42 660
6.48 679
6.54 686
6.6 610
6.66 669
6.72 648
6.78 610
6.84 624
6.9 601
6.96 635
7.02 610
7.08 681
7.14 604
7.2 620
7.26 673
7.32 673
7.38 637
7.44 640
7.5 628
7.56 646
7.62 650
7.68 710
7.74 664
7.8 732
7.86 715
7.92 758
7.98 698
8.04 660
8.1 711
8.16 728
8.22 680
8.28 744
8.34 771
8.4 755
8.46 766
8.52 779
8.58 799
8.64 816
8.7 849
8.76 900
8.82 1009
8.88 1078
8.94 1225
9 1206
9.06 1178
9.12 1082
9.18 1082
9.24 1032
9.3 1041
9.36 1029
9.42 915
9.48 837
9.54 848
9.6 813
9.66 870
9.72 919
9.78 948
9.84 1107
9.9 1237
9.96 1391
10.02 1259
10.08 1023
10.14 927
10.2 808
10.26 817
10.32 728
10.38 747
10.44 740
10.5 724
10.56 690
10.62 678
10.68 711
10.74 719
10.8 701
10.86 681
10.92 744
10.98 605
11.04 631
11.1 596
11.16 594
11.22 606
11.28 577
11.34 598
11.4 540
11.46 603
11.52 593
11.58 577
11.64 590
11.7 583
11.76 586
11.82 616
11.88 601
11.94 526
12 558
12.06 587
12.12 600
12.18 595
12.24 617
12.3 615
12.36 601
12.42 665
12.48 704
12.54 823
12.6 918
12.66 886
12.72 824
12.78 702
12.84 637
12.9 648
12.96 627
13.02 629
13.08 598
13.14 618
13.2 616
13.26 676
13.32 599
13.38 641
13.44 605
13.5 636
13.56 623
13.62 613
13.68 622
13.74 637
13.8 636
13.86 637
13.92 667
13.98 647
14.04 627
14.1 648
14.16 627
14.22 650
14.28 656
14.34 675
14.4 648
14.46 702
14.52 653
14.58 691
14.64 649
14.7 650
14.76 675
14.82 641
14.88 643
14.94 668
15 677
15.06 667
15.12 677
15.18 633
15.24 691
15.3 675
15.36 696
15.42 679
15.48 675
15.54 712
15.6 694
15.66 676
15.72 738
15.78 689
15.84 693
15.9 766
15.96 689
16.02 685
16.08 724
16.14 692
16.2 739
16.26 742
16.32 780
16.38 730
16.44 760
16.5 753
16.56 770
16.62 816
16.68 804
16.74 867
16.8 899
16.86 989
16.92 1210
16.98 1273
17.04 1090
17.1 851
17.16 830
17.22 838
17.28 852
17.34 859
17.4 821
17.46 863
17.52 901
17.58 861
17.64 861
17.7 938
17.76 852
17.82 895
17.88 914
17.94 960
18 933
18.06 932
18.12 968
18.18 989
18.24 1016
18.3 960
18.36 955
18.42 957
18.48 976
18.54 988
18.6 1031
18.66 1000
18.72 1018
18.78 999
18.84 1031
18.9 993
18.96 1050
19.02 1028
19.08 1022
19.14 1047
19.2 1063
19.26 1073
19.32 1088
19.38 1109
19.44 1108
19.5 1144
19.56 1128
19.62 1129
19.68 1183
19.74 1163
19.8 1271
19.86 1289
19.92 1388
19.98 1319
20 1320

File: 45-27.ASC
3 2499
3.06 2145
3.12 1852
3.18 1795
3.24 1752
3.3 1600
3.36 1598
3.42 1590
3.48 1571
3.54 1580
3.6 1492
3.66 1462
3.72 1446
3.78 1365
3.84 1377
3.9 1377
3.96 1377
4.02 1361
4.08 1321
4.14 1317
4.2 1339
4.26 1328
4.32 1360
4.38 1368
4.44 1405
4.5 1244
4.56 1277
4.62 1367
4.68 1297
4.74 1347
4.8 1295
4.86 1354
4.92 1400
4.98 1431
5.04 1455
5.1 1512
5.16 1547
5.22 1619
5.28 1713
5.34 1873
5.4 2151
5.46 2253
5.52 1860
5.58 1610
5.64 1488
5.7 1447
5.76 1287
5.82 1356
5.88 1275
5.94 1267
6 1263
6.06 1138
6.12 1219
6.18 1165
6.24 1167
6.3 1134
6.36 1132
6.42 1136
6.48 1105
6.54 1163
6.6 1127
6.66 1108
6.72 1117
6.78 1160
6.84 1130
6.9 1138
6.96 1104
7.02 1081
7.08 1077
7.14 1134
7.2 1095
7.26 1061
7.32 1062
7.38 1091
7.44 1113
7.5 1067
7.56 1084
7.62 1080
7.68 1016
7.74 1066
7.8 1030
7.86 1072
7.92 1031
7.98 1074
8.04 1012
8.1 1020
8.16 1081
8.22 999
8.28 1061
8.34 1023
8.4 1002
8.46 1005
8.52 1051
8.58 1066
8.64 1133
8.7 1049
8.76 1154
8.82 1142
8.88 1158
8.94 1193
9 1138
9.06 1169
9.12 1117
9.18 1227
9.24 1261
9.3 1280
9.36 1472
9.42 1489
9.48 1290
9.54 1125
9.6 1141
9.66 1096
9.72 1112
9.78 1091
9.84 1017
9.9 983
9.96 1057
10.02 1030
10.08 990
10.14 998
10.2 1071
10.26 1054
10.32 1001
10.38 1049
10.44 1083
10.5 1045
10.56 1011
10.62 1033
10.68 1034
10.74 1013
10.8 1065
10.86 1114
10.92 1087
10.98 1048
11.04 963
11.1 968
11.16 935
11.22 1008
11.28 979
11.34 964
11.4 970
11.46 1019
11.52 1016
11.58 960
11.64 938
11.7 933
11.76 949
11.82 975
11.88 947
11.94 936
12 984
12.06 1034
12.12 947
12.18 944
12.24 957
12.3 941
12.36 944
12.42 955
12.48 982
12.54 985
12.6 1005
12.66 944
12.72 966
12.78 950
12.84 1071
12.9 961
12.96 979
13.02 987
13.08 1014
13.14 986
13.2 993
13.26 978
13.32 968
13.38 979
13.44 962
13.5 1021
13.56 1020
13.62 979
13.68 981
13.74 988
13.8 1000
13.86 976
13.92 1002
13.98 1041
14.04 1010
14.1 1087
14.16 1041
14.22 1015
14.28 1061
14.34 1123
14.4 1053
14.46 1051
14.52 1049
14.58 1045
14.64 1076
14.7 1037
14.76 1033
14.82 1007
14.88 1023
14.94 1091
15 1085
15.06 1037
15.12 1024
15.18 1063
15.24 1008
15.3 1063
15.36 1111
15.42 1032
15.48 1075
15.54 1100
15.6 1078
15.66 1004
15.72 1121
15.78 1096
15.84 1101
15.9 1084
15.96 1164
16.02 1093
16.08 1110
16.14 1140
16.2 1119
16.26 1148
16.32 1187
16.38 1145
16.44 1164
16.5 1175
16.56 1176
16.62 1199
16.68 1220
16.74 1277
16.8 1349
16.86 1518
16.92 1866
16.98 2292
17.04 2100
17.1 1477
17.16 1337
17.22 1272
17.28 1277
17.34 1266
17.4 1348
17.46 1370
17.52 1337
17.58 1341
17.64 1337
17.7 1359
17.76 1382
17.82 1324
17.88 1382
17.94 1404
18 1380
18.06 1425
18.12 1371
18.18 1448
18.24 1423
18.3 1422
18.36 1480
18.42 1467
18.48 1492
18.54 1487
18.6 1483
18.66 1570
18.72 1583
18.78 1567
18.84 1619
18.9 1557
18.96 1612
19.02 1599
19.08 1591
19.14 1559
19.2 1683
19.26 1641
19.32 1680
19.38 1675
19.44 1708
19.5 1656
19.56 1719
19.62 1767
19.68 1770
19.74 1735
19.8 1755
19.86 1791
19.92 1786
19.98 1751
20 1788