Folder: CPC-code/xrd-UiO-67/pxrddata (part 26)

File: 77-6.ASC
3 973
3.06 989
3.12 941
3.18 901
3.24 920
3.3 882
3.36 842
3.42 899
3.48 808
3.54 831
3.6 792
3.66 791
3.72 775
3.78 748
3.84 775
3.9 744
3.96 758
4.02 721
4.08 774
4.14 808
4.2 679
4.26 714
4.32 732
4.38 691
4.44 720
4.5 713
4.56 734
4.62 716
4.68 726
4.74 745
4.8 746
4.86 757
4.92 781
4.98 738
5.04 756
5.1 778
5.16 835
5.22 847
5.28 875
5.34 867
5.4 912
5.46 963
5.52 1103
5.58 1208
5.64 1420
5.7 1736
5.76 2032
5.82 1767
5.88 1234
5.94 846
6 787
6.06 718
6.12 732
6.18 739
6.24 703
6.3 738
6.36 791
6.42 799
6.48 899
6.54 997
6.6 1184
6.66 1251
6.72 1056
6.78 827
6.84 726
6.9 593
6.96 565
7.02 583
7.08 649
7.14 587
7.2 551
7.26 594
7.32 564
7.38 593
7.44 559
7.5 582
7.56 559
7.62 551
7.68 573
7.74 544
7.8 587
7.86 551
7.92 568
7.98 493
8.04 545
8.1 538
8.16 557
8.22 539
8.28 559
8.34 534
8.4 561
8.46 544
8.52 566
8.58 545
8.64 564
8.7 544
8.76 505
8.82 583
8.88 572
8.94 605
9 544
9.06 576
9.12 590
9.18 661
9.24 724
9.3 905
9.36 1012
9.42 976
9.48 763
9.54 612
9.6 592
9.66 608
9.72 579
9.78 552
9.84 521
9.9 572
9.96 550
10.02 562
10.08 553
10.14 592
10.2 562
10.26 571
10.32 596
10.38 529
10.44 514
10.5 557
10.56 559
10.62 616
10.68 598
10.74 617
10.8 645
10.86 762
10.92 914
10.98 1049
11.04 933
11.1 736
11.16 611
11.22 583
11.28 640
11.34 664
11.4 730
11.46 807
11.52 743
11.58 672
11.64 589
11.7 635
11.76 571
11.82 591
11.88 564
11.94 580
12 571
12.06 563
12.12 600
12.18 570
12.24 579
12.3 617
12.36 554
12.42 561
12.48 558
12.54 544
12.6 595
12.66 547
12.72 608
12.78 584
12.84 568
12.9 592
12.96 584
13.02 625
13.08 624
13.14 623
13.2 660
13.26 696
13.32 625
13.38 613
13.44 609
13.5 639
13.56 665
13.62 623
13.68 614
13.74 617
13.8 633
13.86 659
13.92 602
13.98 612
14.04 663
14.1 644
14.16 644
14.22 681
14.28 672
14.34 752
14.4 734
14.46 770
14.52 722
14.58 691
14.64 760
14.7 689
14.76 704
14.82 707
14.88 780
14.94 733
15 728
15.06 734
15.12 727
15.18 807
15.24 795
15.3 767
15.36 777
15.42 823
15.48 752
15.54 821
15.6 752
15.66 794
15.72 832
15.78 785
15.84 812
15.9 876
15.96 853
16.02 832
16.08 834
16.14 796
16.2 870
16.26 937
16.32 890
16.38 928
16.44 973
16.5 954
16.56 943
16.62 930
16.68 1024
16.74 941
16.8 987
16.86 972
16.92 986
16.98 1020
17.04 980
17.1 1085
17.16 1093
17.22 1098
17.28 1145
17.34 1102
17.4 1034
17.46 1104
17.52 1068
17.58 1066
17.64 1095
17.7 1144
17.76 1161
17.82 1144
17.88 1192
17.94 1110
18 1219
18.06 1121
18.12 1219
18.18 1158
18.24 1160
18.3 1214
18.36 1212
18.42 1215
18.48 1210
18.54 1266
18.6 1228
18.66 1251
18.72 1241
18.78 1244
18.84 1305
18.9 1264
18.96 1277
19.02 1297
19.08 1286
19.14 1366
19.2 1296
19.26 1329
19.32 1413
19.38 1423
19.44 1399
19.5 1519
19.56 1589
19.62 1620
19.68 1505
19.74 1561
19.8 1615
19.86 1700
19.92 1777
19.98 1544
20 1533

File: 78-5.ASC
3 1220
3.06 1122
3.12 1125
3.18 1050
3.24 1061
3.3 961
3.36 982
3.42 935
3.48 935
3.54 954
3.6 853
3.66 893
3.72 855
3.78 888
3.84 854
3.9 844
3.96 882
4.02 863
4.08 876
4.14 806
4.2 794
4.26 721
4.32 744
4.38 672
4.44 761
4.5 741
4.56 724
4.62 754
4.68 742
4.74 785
4.8 763
4.86 778
4.92 796
4.98 827
5.04 935
5.1 945
5.16 1033
5.22 1233
5.28 1312
5.34 1483
5.4 1743
5.46 1800
5.52 2213
5.58 2666
5.64 3627
5.7 6334
5.76 3596
5.82 1316
5.88 971
5.94 875
6 881
6.06 847
6.12 837
6.18 893
6.24 940
6.3 1078
6.36 1209
6.42 1479
6.48 1666
6.54 2393
6.6 3491
6.66 1272
6.72 882
6.78 789
6.84 658
6.9 670
6.96 617
7.02 637
7.08 624
7.14 616
7.2 652
7.26 648
7.32 621
7.38 632
7.44 621
7.5 593
7.56 644
7.62 632
7.68 624
7.74 628
7.8 602
7.86 604
7.92 603
7.98 601
8.04 644
8.1 603
8.16 600
8.22 647
8.28 563
8.34 634
8.4 635
8.46 596
8.52 603
8.58 602
8.64 620
8.7 612
8.76 677
8.82 659
8.88 672
8.94 724
9 769
9.06 885
9.12 1031
9.18 1226
9.24 1606
9.3 2647
9.36 1675
9.42 808
9.48 655
9.54 630
9.6 637
9.66 589
9.72 605
9.78 635
9.84 657
9.9 593
9.96 603
10.02 650
10.08 649
10.14 678
10.2 646
10.26 647
10.32 612
10.38 579
10.44 651
10.5 661
10.56 751
10.62 762
10.68 900
10.74 1066
10.8 1154
10.86 1651
10.92 2511
10.98 1447
11.04 810
11.1 718
11.16 713
11.22 820
11.28 888
11.34 1069
11.4 1545
11.46 1077
11.52 760
11.58 657
11.64 593
11.7 645
11.76 611
11.82 638
11.88 649
11.94 618
12 601
12.06 646
12.12 680
12.18 670
12.24 636
12.3 638
12.36 638
12.42 653
12.48 637
12.54 629
12.6 653
12.66 618
12.72 645
12.78 640
12.84 669
12.9 682
12.96 638
13.02 731
13.08 730
13.14 818
13.2 914
13.26 776
13.32 663
13.38 668
13.44 676
13.5 656
13.56 685
13.62 668
13.68 664
13.74 689
13.8 656
13.86 658
13.92 677
13.98 683
14.04 671
14.1 673
14.16 684
14.22 742
14.28 766
14.34 898
14.4 917
14.46 752
14.52 679
14.58 731
14.64 707
14.7 787
14.76 735
14.82 756
14.88 725
14.94 717
15 727
15.06 749
15.12 715
15.18 700
15.24 766
15.3 733
15.36 720
15.42 747
15.48 764
15.54 769
15.6 734
15.66 777
15.72 774
15.78 720
15.84 758
15.9 735
15.96 811
16.02 858
16.08 818
16.14 829
16.2 797
16.26 855
16.32 824
16.38 836
16.44 817
16.5 866
16.56 885
16.62 860
16.68 811
16.74 816
16.8 838
16.86 929
16.92 945
16.98 858
17.04 990
17.1 1113
17.16 1124
17.22 1040
17.28 946
17.34 892
17.4 920
17.46 934
17.52 914
17.58 920
17.64 996
17.7 1015
17.76 981
17.82 1001
17.88 975
17.94 995
18 1000
18.06 979
18.12 975
18.18 962
18.24 980
18.3 1019
18.36 990
18.42 1082
18.48 1053
18.54 1053
18.6 1121
18.66 1101
18.72 1116
18.78 1098
18.84 1063
18.9 1142
18.96 1145
19.02 1241
19.08 1135
19.14 1164
19.2 1147
19.26 1150
19.32 1268
19.38 1298
19.44 1389
19.5 1633
19.56 1893
19.62 1491
19.68 1387
19.74 1515
19.8 2044
19.86 2003
19.92 1468
19.98 1238
20 1215

File: 78-13.ASC
3 986
3.06 768
3.12 677
3.18 577
3.24 542
3.3 567
3.36 513
3.42 535
3.48 475
3.54 493
3.6 456
3.66 470
3.72 472
3.78 397
3.84 453
3.9 420
3.96 452
4.02 425
4.08 388
4.14 437
4.2 416
4.26 396
4.32 356
4.38 378
4.44 373
4.5 401
4.56 399
4.62 416
4.68 404
4.74 417
4.8 419
4.86 392
4.92 396
4.98 427
5.04 410
5.1 411
5.16 417
5.22 412
5.28 416
5.34 413
5.4 396
5.46 377
5.52 395
5.58 393
5.64 377
5.7 406
5.76 430
5.82 404
5.88 372
5.94 373
6 440
6.06 400
6.12 403
6.18 411
6.24 388
6.3 392
6.36 372
6.42 410
6.48 332
6.54 381
6.6 391
6.66 385
6.72 380
6.78 398
6.84 360
6.9 387
6.96 424
7.02 400
7.08 389
7.14 381
7.2 368
7.26 351
7.32 394
7.38 400
7.44 380
7.5 355
7.56 364
7.62 411
7.68 380
7.74 430
7.8 371
7.86 361
7.92 379
7.98 358
8.04 402
8.1 387
8.16 383
8.22 374
8.28 382
8.34 395
8.4 373
8.46 379
8.52 408
8.58 369
8.64 407
8.7 384
8.76 391
8.82 387
8.88 390
8.94 399
9 372
9.06 370
9.12 413
9.18 370
9.24 420
9.3 415
9.36 463
9.42 380
9.48 417
9.54 394
9.6 413
9.66 434
9.72 374
9.78 383
9.84 403
9.9 414
9.96 392
10.02 359
10.08 375
10.14 411
10.2 372
10.26 421
10.32 383
10.38 412
10.44 401
10.5 392
10.56 437
10.62 421
10.68 419
10.74 414
10.8 431
10.86 414
10.92 411
10.98 382
11.04 407
11.1 420
11.16 378
11.22 422
11.28 370
11.34 400
11.4 393
11.46 397
11.52 422
11.58 419
11.64 407
11.7 444
11.76 434
11.82 402
11.88 453
11.94 407
12 436
12.06 426
12.12 404
12.18 434
12.24 420
12.3 406
12.36 442
12.42 444
12.48 457
12.54 436
12.6 422
12.66 437
12.72 421
12.78 408
12.84 427
12.9 439
12.96 438
13.02 456
13.08 426
13.14 437
13.2 473
13.26 442
13.32 462
13.38 474
13.44 458
13.5 446
13.56 472
13.62 504
13.68 428
13.74 457
13.8 506
13.86 516
13.92 473
13.98 477
14.04 525
14.1 447
14.16 500
14.22 503
14.28 452
14.34 453
14.4 530
14.46 533
14.52 518
14.58 517
14.64 538
14.7 494
14.76 525
14.82 577
14.88 530
14.94 510
15 540
15.06 502
15.12 481
15.18 529
15.24 515
15.3 551
15.36 527
15.42 562
15.48 567
15.54 548
15.6 570
15.66 592
15.72 583
15.78 587
15.84 605
15.9 583
15.96 584
16.02 646
16.08 607
16.14 631
16.2 627
16.26 658
16.32 630
16.38 611
16.44 631
16.5 682
16.56 704
16.62 683
16.68 619
16.74 673
16.8 694
16.86 710
16.92 657
16.98 772
17.04 742
17.1 714
17.16 741
17.22 725
17.28 756
17.34 790
17.4 768
17.46 748
17.52 769
17.58 770
17.64 810
17.7 840
17.76 879
17.82 804
17.88 879
17.94 857
18 885
18.06 872
18.12 866
18.18 859
18.24 879
18.3 899
18.36 891
18.42 886
18.48 945
18.54 946
18.6 929
18.66 998
18.72 980
18.78 985
18.84 1005
18.9 1005
18.96 1042
19.02 984
19.08 1019
19.14 1039
19.2 1003
19.26 1055
19.32 1093
19.38 1043
19.44 1068
19.5 1073
19.56 1091
19.62 1081
19.68 1118
19.74 1082
19.8 1113
19.86 1061
19.92 1087
19.98 1101
20 1106

File: 78-14.ASC
3 1359
3.06 1269
3.12 1293
3.18 1217
3.24 1227
3.3 1192
3.36 1210
3.42 1166
3.48 1203
3.54 1150
3.6 1142
3.66 1191
3.72 1161
3.78 1189
3.84 1149
3.9 1141
3.96 1173
4.02 1163
4.08 1208
4.14 1312
4.2 1194
4.26 1240
4.32 1237
4.38 1280
4.44 1346
4.5 1321
4.56 1342
4.62 1366
4.68 1370
4.74 1407
4.8 1359
4.86 1402
4.92 1563
4.98 1490
5.04 1435
5.1 1423
5.16 1485
5.22 1529
5.28 1545
5.34 1526
5.4 1655
5.46 1658
5.52 1845
5.58 1913
5.64 2154
5.7 2796
5.76 2187
5.82 1297
5.88 1146
5.94 1201
6 1173
6.06 1108
6.12 1147
6.18 1114
6.24 1123
6.3 1115
6.36 1110
6.42 1223
6.48 1318
6.54 1602
6.6 1877
6.66 1151
6.72 874
6.78 862
6.84 921
6.9 905
6.96 912
7.02 898
7.08 877
7.14 800
7.2 831
7.26 803
7.32 842
7.38 805
7.44 809
7.5 748
7.56 759
7.62 775
7.68 788
7.74 796
7.8 802
7.86 774
7.92 723
7.98 763
8.04 777
8.1 748
8.16 772
8.22 735
8.28 748
8.34 782
8.4 766
8.46 773
8.52 782
8.58 775
8.64 801
8.7 778
8.76 769
8.82 790
8.88 810
8.94 763
9 834
9.06 868
9.12 910
9.18 948
9.24 1140
9.3 1447
9.36 1229
9.42 804
9.48 746
9.54 780
9.6 793
9.66 781
9.72 771
9.78 769
9.84 737
9.9 737
9.96 715
10.02 788
10.08 734
10.14 777
10.2 735
10.26 736
10.32 746
10.38 723
10.44 712
10.5 755
10.56 783
10.62 765
10.68 843
10.74 815
10.8 922
10.86 1072
10.92 1318
10.98 1062
11.04 770
11.1 716
11.16 769
11.22 737
11.28 805
11.34 796
11.4 1011
11.46 898
11.52 775
11.58 667
11.64 731
11.7 738
11.76 664
11.82 696
11.88 714
11.94 718
12 712
12.06 716
12.12 705
12.18 698
12.24 682
12.3 788
12.36 679
12.42 720
12.48 725
12.54 716
12.6 659
12.66 685
12.72 694
12.78 689
12.84 738
12.9 722
12.96 691
13.02 706
13.08 771
13.14 809
13.2 812
13.26 740
13.32 747
13.38 673
13.44 708
13.5 706
13.56 697
13.62 751
13.68 724
13.74 690
13.8 711
13.86 728
13.92 739
13.98 722
14.04 734
14.1 741
14.16 693
14.22 801
14.28 785
14.34 873
14.4 801
14.46 799
14.52 716
14.58 748
14.64 815
14.7 793
14.76 829
14.82 753
14.88 773
14.94 790
15 791
15.06 802
15.12 761
15.18 801
15.24 794
15.3 809
15.36 794
15.42 795
15.48 842
15.54 850
15.6 798
15.66 795
15.72 825
15.78 793
15.84 869
15.9 865
15.96 878
16.02 838
16.08 857
16.14 847
16.2 856
16.26 872
16.32 884
16.38 896
16.44 846
16.5 932
16.56 854
16.62 934
16.68 896
16.74 873
16.8 911
16.86 928
16.92 872
16.98 938
17.04 943
17.1 967
17.16 1009
17.22 950
17.28 951
17.34 915
17.4 938
17.46 948
17.52 916
17.58 941
17.64 944
17.7 998
17.76 962
17.82 988
17.88 1025
17.94 932
18 1005
18.06 1042
18.12 1053
18.18 998
18.24 1047
18.3 1061
18.36 1007
18.42 1105
18.48 1057
18.54 1075
18.6 1048
18.66 1051
18.72 1051
18.78 1088
18.84 1067
18.9 1168
18.96 1112
19.02 1113
19.08 1085
19.14 1071
19.2 1157
19.26 1115
19.32 1177
19.38 1105
19.44 1253
19.5 1239
19.56 1304
19.62 1233
19.68 1237
19.74 1274
19.8 1486
19.86 1433
19.92 1240
19.98 1147
20 1146

File: 78-15.ASC
3 1211
3.06 1201
3.12 1215
3.18 1145
3.24 1091
3.3 1061
3.36 1040
3.42 974
3.48 1030
3.54 963
3.6 921
3.66 1020
3.72 903
3.78 883
3.84 885
3.9 852
3.96 910
4.02 771
4.08 800
4.14 837
4.2 783
4.26 837
4.32 757
4.38 738
4.44 733
4.5 724
4.56 762
4.62 695
4.68 724
4.74 759
4.8 727
4.86 671
4.92 742
4.98 748
5.04 739
5.1 809
5.16 814
5.22 808
5.28 828
5.34 854
5.4 899
5.46 1012
5.52 1177
5.58 1326
5.64 1594
5.7 2339
5.76 2281
5.82 812
5.88 711
5.94 688
6 738
6.06 703
6.12 645
6.18 680
6.24 742
6.3 733
6.36 786
6.42 873
6.48 989
6.54 1199
6.6 1586
6.66 944
6.72 670
6.78 657
6.84 665
6.9 647
6.96 581
7.02 557
7.08 608
7.14 572
7.2 605
7.26 594
7.32 551
7.38 590
7.44 594
7.5 551
7.56 596
7.62 594
7.68 589
7.74 586
7.8 571
7.86 541
7.92 552
7.98 581
8.04 602
8.1 539
8.16 584
8.22 522
8.28 506
8.34 532
8.4 588
8.46 533
8.52 544
8.58 569
8.64 570
8.7 583
8.76 528
8.82 529
8.88 541
8.94 562
9 617
9.06 590
9.12 651
9.18 729
9.24 841
9.3 1140
9.36 1118
9.42 606
9.48 567
9.54 553
9.6 563
9.66 550
9.72 515
9.78 549
9.84 520
9.9 507
9.96 482
10.02 513
10.08 522
10.14 541
10.2 488
10.26 555
10.32 520
10.38 509
10.44 549
10.5 531
10.56 538
10.62 587
10.68 581
10.74 659
10.8 739
10.86 875
10.92 1088
10.98 933
11.04 535
11.1 575
11.16 547
11.22 588
11.28 606
11.34 683
11.4 863
11.46 822
11.52 509
11.58 515
11.64 524
11.7 511
11.76 480
11.82 546
11.88 516
11.94 523
12 502
12.06 500
12.12 525
12.18 528
12.24 528
12.3 564
12.36 528
12.42 535
12.48 511
12.54 507
12.6 477
12.66 552
12.72 528
12.78 513
12.84 520
12.9 504
12.96 507
13.02 548
13.08 561
13.14 628
13.2 573
13.26 529
13.32 541
13.38 525
13.44 555
13.5 526
13.56 543
13.62 556
13.68 527
13.74 554
13.8 519
13.86 534
13.92 574
13.98 591
14.04 556
14.1 564
14.16 537
14.22 551
14.28 626
14.34 635
14.4 677
14.46 599
14.52 563
14.58 592
14.64 609
14.7 584
14.76 621
14.82 623
14.88 595
14.94 654
15 620
15.06 633
15.12 593
15.18 581
15.24 610
15.3 600
15.36 617
15.42 637
15.48 676
15.54 657
15.6 668
15.66 640
15.72 670
15.78 634
15.84 693
15.9 646
15.96 659
16.02 663
16.08 625
16.14 734
16.2 659
16.26 681
16.32 695
16.38 707
16.44 735
16.5 659
16.56 762
16.62 732
16.68 707
16.74 705
16.8 705
16.86 717
16.92 742
16.98 814
17.04 772
17.1 874
17.16 875
17.22 817
17.28 813
17.34 815
17.4 772
17.46 812
17.52 819
17.58 790
17.64 815
17.7 871
17.76 817
17.82 813
17.88 836
17.94 873
18 804
18.06 837
18.12 816
18.18 887
18.24 801
18.3 853
18.36 839
18.42 865
18.48 852
18.54 868
18.6 901
18.66 874
18.72 887
18.78 897
18.84 938
18.9 961
18.96 926
19.02 940
19.08 920
19.14 972
19.2 933
19.26 949
19.32 960
19.38 992
19.44 1066
19.5 1307
19.56 1245
19.62 1116
19.68 1060
19.74 1190
19.8 1482
19.86 1393
19.92 1032
19.98 1010
20 1014

File: 105-3.ASC
3 1050
3.06 811
3.12 688
3.18 640
3.24 619
3.3 573
3.36 542
3.42 531
3.48 533
3.54 515
3.6 528
3.66 511
3.72 536
3.78 467
3.84 468
3.9 510
3.96 510
4.02 469
4.08 504
4.14 477
4.2 457
4.26 455
4.32 433
4.38 468
4.44 440
4.5 425
4.56 452
4.62 450
4.68 463
4.74 445
4.8 450
4.86 467
4.92 524
4.98 477
5.04 523
5.1 475
5.16 471
5.22 503
5.28 510
5.34 502
5.4 527
5.46 558
5.52 622
5.58 561
5.64 594
5.7 610
5.76 686
5.82 771
5.88 890
5.94 629
6 489
6.06 462
6.12 427
6.18 451
6.24 438
6.3 401
6.36 447
6.42 460
6.48 397
6.54 383
6.6 407
6.66 466
6.72 454
6.78 445
6.84 450
6.9 428
6.96 383
7.02 408
7.08 398
7.14 407
7.2 399
7.26 393
7.32 412
7.38 386
7.44 378
7.5 408
7.56 401
7.62 399
7.68 403
7.74 408
7.8 397
7.86 387
7.92 404
7.98 377
8.04 360
8.1 389
8.16 412
8.22 431
8.28 427
8.34 368
8.4 396
8.46 392
8.52 388
8.58 423
8.64 431
8.7 431
8.76 376
8.82 403
8.88 425
8.94 393
9 412
9.06 446
9.12 436
9.18 458
9.24 425
9.3 425
9.36 481
9.42 536
9.48 519
9.54 402
9.6 396
9.66 407
9.72 389
9.78 411
9.84 403
9.9 412
9.96 392
10.02 406
10.08 406
10.14 419
10.2 418
10.26 486
10.32 480
10.38 413
10.44 401
10.5 402
10.56 413
10.62 459
10.68 445
10.74 423
10.8 447
10.86 423
10.92 489
10.98 486
11.04 479
11.1 514
11.16 422
11.22 401
11.28 418
11.34 415
11.4 453
11.46 461
11.52 437
11.58 510
11.64 477
11.7 427
11.76 456
11.82 424
11.88 423
11.94 397
12 462
12.06 441
12.12 436
12.18 454
12.24 394
12.3 426
12.36 423
12.42 422
12.48 441
12.54 454
12.6 421
12.66 468
12.72 457
12.78 463
12.84 422
12.9 435
12.96 467
13.02 431
13.08 479
13.14 479
13.2 450
13.26 450
13.32 434
13.38 464
13.44 453
13.5 510
13.56 452
13.62 489
13.68 466
13.74 516
13.8 481
13.86 480
13.92 457
13.98 506
14.04 458
14.1 446
14.16 486
14.22 475
14.28 515
14.34 487
14.4 538
14.46 525
14.52 542
14.58 482
14.64 538
14.7 519
14.76 522
14.82 533
14.88 488
14.94 524
15 523
15.06 532
15.12 525
15.18 552
15.24 569
15.3 537
15.36 547
15.42 554
15.48 574
15.54 573
15.6 553
15.66 526
15.72 575
15.78 533
15.84 608
15.9 601
15.96 645
16.02 601
16.08 583
16.14 604
16.2 630
16.26 630
16.32 605
16.38 604
16.44 646
16.5 630
16.56 639
16.62 640
16.68 673
16.74 639
16.8 647
16.86 677
16.92 691
16.98 680
17.04 689
17.1 767
17.16 726
17.22 724
17.28 721
17.34 719
17.4 800
17.46 713
17.52 768
17.58 714
17.64 786
17.7 746
17.76 772
17.82 825
17.88 798
17.94 821
18 820
18.06 843
18.12 809
18.18 830
18.24 843
18.3 818
18.36 858
18.42 880
18.48 766
18.54 840
18.6 913
18.66 869
18.72 902
18.78 929
18.84 856
18.9 935
18.96 959
19.02 987
19.08 976
19.14 1092
19.2 981
19.26 997
19.32 1021
19.38 1000
19.44 1017
19.5 1041
19.56 1091
19.62 1110
19.68 1098
19.74 1045
19.8 1081
19.86 1070
19.92 1057
19.98 1117
20 1137

File: 106-1.ASC
3 1252
3.06 965
3.12 908
3.18 751
3.24 715
3.3 714
3.36 680
3.42 686
3.48 619
3.54 641
3.6 641
3.66 623
3.72 589
3.78 580
3.84 549
3.9 563
3.96 509
4.02 542
4.08 534
4.14 536
4.2 532
4.26 523
4.32 498
4.38 509
4.44 495
4.5 506
4.56 503
4.62 560
4.68 502
4.74 509
4.8 491
4.86 572
4.92 498
4.98 484
5.04 548
5.1 536
5.16 517
5.22 546
5.28 516
5.34 560
5.4 586
5.46 608
5.52 645
5.58 552
5.64 524
5.7 536
5.76 507
5.82 489
5.88 492
5.94 461
6 471
6.06 419
6.12 444
6.18 409
6.24 429
6.3 388
6.36 439
6.42 385
6.48 398
6.54 410
6.6 411
6.66 426
6.72 428
6.78 424
6.84 404
6.9 415
6.96 394
7.02 417
7.08 415
7.14 421
7.2 423
7.26 420
7.32 407
7.38 402
7.44 432
7.5 393
7.56 417
7.62 382
7.68 455
7.74 375
7.8 401
7.86 425
7.92 400
7.98 377
8.04 416
8.1 380
8.16 410
8.22 408
8.28 442
8.34 406
8.4 410
8.46 437
8.52 404
8.58 403
8.64 405
8.7 405
8.76 384
8.82 401
8.88 398
8.94 397
9 411
9.06 393
9.12 441
9.18 398
9.24 413
9.3 451
9.36 469
9.42 493
9.48 475
9.54 416
9.6 424
9.66 396
9.72 462
9.78 415
9.84 418
9.9 415
9.96 392
10.02 396
10.08 439
10.14 426
10.2 428
10.26 426
10.32 459
10.38 453
10.44 394
10.5 415
10.56 421
10.62 449
10.68 420
10.74 436
10.8 413
10.86 438
10.92 438
10.98 424
11.04 455
11.1 410
11.16 401
11.22 419
11.28 429
11.34 430
11.4 412
11.46 424
11.52 432
11.58 440
11.64 421
11.7 452
11.76 412
11.82 405
11.88 475
11.94 406
12 405
12.06 424
12.12 446
12.18 436
12.24 451
12.3 424
12.36 441
12.42 409
12.48 431
12.54 426
12.6 494
12.66 464
12.72 449
12.78 465
12.84 444
12.9 429
12.96 468
13.02 440
13.08 420
13.14 427
13.2 401
13.26 447
13.32 444
13.38 477
13.44 423
13.5 437
13.56 447
13.62 479
13.68 467
13.74 463
13.8 472
13.86 447
13.92 476
13.98 450
14.04 460
14.1 506
14.16 473
14.22 521
14.28 495
14.34 467
14.4 498
14.46 472
14.52 486
14.58 494
14.64 502
14.7 493
14.76 493
14.82 504
14.88 517
14.94 502
15 543
15.06 529
15.12 560
15.18 541
15.24 551
15.3 558
15.36 506
15.42 539
15.48 517
15.54 545
15.6 498
15.66 555
15.72 517
15.78 527
15.84 579
15.9 595
15.96 579
16.02 577
16.08 584
16.14 558
16.2 599
16.26 626
16.32 629
16.38 590
16.44 610
16.5 661
16.56 587
16.62 640
16.68 625
16.74 665
16.8 645
16.86 703
16.92 700
16.98 719
17.04 864
17.1 834
17.16 790
17.22 693
17.28 715
17.34 712
17.4 753
17.46 699
17.52 719
17.58 687
17.64 758
17.7 719
17.76 757
17.82 730
17.88 788
17.94 795
18 774
18.06 780
18.12 771
18.18 809
18.24 842
18.3 847
18.36 821
18.42 792
18.48 801
18.54 777
18.6 854
18.66 875
18.72 874
18.78 906
18.84 931
18.9 913
18.96 914
19.02 925
19.08 927
19.14 943
19.2 991
19.26 965
19.32 1016
19.38 1016
19.44 988
19.5 1049
19.56 988
19.62 1026
19.68 970
19.74 1069
19.8 1010
19.86 1006
19.92 1006
19.98 1107
20 1046

File: 106-4.ASC
3 1865
3.06 1570
3.12 1224
3.18 1167
3.24 1062
3.3 979
3.36 941
3.42 937
3.48 850
3.54 813
3.6 807
3.66 782
3.72 724
3.78 764
3.84 744
3.9 708
3.96 760
4.02 648
4.08 623
4.14 630
4.2 682
4.26 630
4.32 632
4.38 623
4.44 603
4.5 580
4.56 565
4.62 568
4.68 547
4.74 597
4.8 550
4.86 572
4.92 590
4.98 522
5.04 562
5.1 533
5.16 597
5.22 590
5.28 539
5.34 545
5.4 543
5.46 500
5.52 518
5.58 549
5.64 591
5.7 550
5.76 506
5.82 553
5.88 571
5.94 520
6 504
6.06 477
6.12 531
6.18 550
6.24 539
6.3 520
6.36 518
6.42 539
6.48 538
6.54 511
6.6 538
6.66 514
6.72 528
6.78 545
6.84 554
6.9 519
6.96 528
7.02 516
7.08 515
7.14 535
7.2 506
7.26 502
7.32 513
7.38 510
7.44 588
7.5 562
7.56 504
7.62 569
7.68 532
7.74 527
7.8 499
7.86 492
7.92 509
7.98 547
8.04 534
8.1 521
8.16 524
8.22 487
8.28 531
8.34 488
8.4 491
8.46 528
8.52 519
8.58 536
8.64 492
8.7 485
8.76 523
8.82 523
8.88 482
8.94 532
9 512
9.06 504
9.12 514
9.18 499
9.24 482
9.3 478
9.36 503
9.42 518
9.48 483
9.54 508
9.6 501
9.66 506
9.72 491
9.78 518
9.84 474
9.9 503
9.96 457
10.02 501
10.08 460
10.14 490
10.2 463
10.26 462
10.32 497
10.38 477
10.44 494
10.5 522
10.56 493
10.62 504
10.68 486
10.74 448
10.8 488
10.86 446
10.92 462
10.98 511
11.04 499
11.1 511
11.16 495
11.22 486
11.28 496
11.34 485
11.4 470
11.46 487
11.52 509
11.58 502
11.64 457
11.7 480
11.76 502
11.82 472
11.88 500
11.94 508
12 497
12.06 463
12.12 504
12.18 456
12.24 473
12.3 526
12.36 451
12.42 491
12.48 460
12.54 484
12.6 466
12.66 467
12.72 538
12.78 483
12.84 530
12.9 519
12.96 494
13.02 477
13.08 527
13.14 487
13.2 486
13.26 512
13.32 533
13.38 508
13.44 531
13.5 503
13.56 474
13.62 523
13.68 452
13.74 528
13.8 532
13.86 505
13.92 471
13.98 515
14.04 521
14.1 513
14.16 548
14.22 544
14.28 530
14.34 532
14.4 522
14.46 554
14.52 493
14.58 577
14.64 590
14.7 555
14.76 578
14.82 523
14.88 597
14.94 618
15 582
15.06 585
15.12 563
15.18 580
15.24 584
15.3 546
15.36 571
15.42 574
15.48 577
15.54 590
15.6 581
15.66 649
15.72 610
15.78 607
15.84 588
15.9 621
15.96 607
16.02 613
16.08 626
16.14 641
16.2 646
16.26 635
16.32 649
16.38 657
16.44 639
16.5 688
16.56 691
16.62 682
16.68 660
16.74 687
16.8 705
16.86 763
16.92 758
16.98 896
17.04 918
17.1 823
17.16 738
17.22 772
17.28 722
17.34 765
17.4 729
17.46 748
17.52 746
17.58 767
17.64 782
17.7 768
17.76 813
17.82 777
17.88 802
17.94 820
18 847
18.06 839
18.12 875
18.18 782
18.24 861
18.3 851
18.36 881
18.42 878
18.48 889
18.54 885
18.6 874
18.66 875
18.72 845
18.78 970
18.84 909
18.9 884
18.96 936
19.02 934
19.08 929
19.14 937
19.2 946
19.26 985
19.32 1019
19.38 988
19.44 1026
19.5 982
19.56 952
19.62 946
19.68 1001
19.74 1064
19.8 981
19.86 989
19.92 1053
19.98 1039
20 1023

File: 106-5.ASC
3 1869
3.06 1379
3.12 1215
3.18 1067
3.24 1022
3.3 1027
3.36 949
3.42 903
3.48 911
3.54 821
3.6 866
3.66 836
3.72 792
3.78 743
3.84 774
3.9 766
3.96 766
4.02 746
4.08 746
4.14 733
4.2 679
4.26 677
4.32 677
4.38 743
4.44 668
4.5 689
4.56 688
4.62 640
4.68 666
4.74 658
4.8 703
4.86 597
4.92 677
4.98 624
5.04 709
5.1 675
5.16 657
5.22 672
5.28 658
5.34 705
5.4 613
5.46 667
5.52 707
5.58 685
5.64 653
5.7 651
5.76 631
5.82 666
5.88 644
5.94 683
6 695
6.06 637
6.12 637
6.18 676
6.24 697
6.3 634
6.36 702
6.42 683
6.48 672
6.54 667
6.6 712
6.66 682
6.72 652
6.78 652
6.84 646
6.9 677
6.96 636
7.02 663
7.08 718
7.14 666
7.2 672
7.26 642
7.32 667
7.38 662
7.44 636
7.5 647
7.56 659
7.62 645
7.68 668
7.74 663
7.8 652
7.86 662
7.92 659
7.98 715
8.04 679
8.1 656
8.16 637
8.22 666
8.28 674
8.34 632
8.4 649
8.46 694
8.52 670
8.58 688
8.64 641
8.7 682
8.76 658
8.82 647
8.88 690
8.94 638
9 651
9.06 677
9.12 662
9.18 637
9.24 615
9.3 677
9.36 654
9.42 686
9.48 680
9.54 671
9.6 641
9.66 660
9.72 634
9.78 684
9.84 687
9.9 660
9.96 661
10.02 603
10.08 654
10.14 659
10.2 684
10.26 659
10.32 614
10.38 636
10.44 642
10.5 643
10.56 654
10.62 667
10.68 629
10.74 657
10.8 637
10.86 650
10.92 690
10.98 679
11.04 707
11.1 708
11.16 678
11.22 690
11.28 709
11.34 652
11.4 661
11.46 689
11.52 697
11.58 663
11.64 700
11.7 680
11.76 659
11.82 667
11.88 723
11.94 688
12 692
12.06 686
12.12 676
12.18 664
12.24 670
12.3 676
12.36 740
12.42 705
12.48 694
12.54 701
12.6 679
12.66 658
12.72 673
12.78 718
12.84 693
12.9 721
12.96 666
13.02 720
13.08 694
13.14 755
13.2 678
13.26 685
13.32 725
13.38 722
13.44 679
13.5 724
13.56 729
13.62 742
13.68 714
13.74 788
13.8 768
13.86 741
13.92 733
13.98 742
14.04 763
14.1 750
14.16 803
14.22 796
14.28 798
14.34 746
14.4 841
14.46 773
14.52 737
14.58 802
14.64 745
14.7 830
14.76 794
14.82 826
14.88 746
14.94 807
15 830
15.06 810
15.12 870
15.18 864
15.24 828
15.3 866
15.36 813
15.42 864
15.48 913
15.54 894
15.6 884
15.66 869
15.72 948
15.78 891
15.84 984
15.9 884
15.96 919
16.02 948
16.08 931
16.14 954
16.2 919
16.26 1011
16.32 930
16.38 952
16.44 969
16.5 955
16.56 955
16.62 1021
16.68 1031
16.74 1056
16.8 1042
16.86 1066
16.92 1125
16.98 1239
17.04 1377
17.1 1269
17.16 1169
17.22 1132
17.28 1079
17.34 1129
17.4 1161
17.46 1170
17.52 1172
17.58 1151
17.64 1215
17.7 1142
17.76 1198
17.82 1225
17.88 1184
17.94 1270
18 1269
18.06 1232
18.12 1333
18.18 1248
18.24 1307
18.3 1270
18.36 1263
18.42 1364
18.48 1382
18.54 1356
18.6 1384
18.66 1321
18.72 1431
18.78 1389
18.84 1373
18.9 1423
18.96 1409
19.02 1464
19.08 1414
19.14 1512
19.2 1459
19.26 1494
19.32 1479
19.38 1462
19.44 1576
19.5 1587
19.56 1545
19.62 1555
19.68 1562
19.74 1599
19.8 1535
19.86 1616
19.92 1632
19.98 1614
20 1630