Folder: CPC-code/xrd-UiO-67/pxrddata (part 12)

File: 36-11.ASC
3 2895
3.06 2538
3.12 2342
3.18 2157
3.24 2259
3.3 2086
3.36 2078
3.42 2050
3.48 1939
3.54 1881
3.6 1909
3.66 1837
3.72 1742
3.78 1683
3.84 1656
3.9 1606
3.96 1566
4.02 1499
4.08 1504
4.14 1444
4.2 1388
4.26 1361
4.32 1280
4.38 1308
4.44 1159
4.5 1206
4.56 1097
4.62 1151
4.68 1077
4.74 1030
4.8 1022
4.86 1025
4.92 976
4.98 989
5.04 932
5.1 864
5.16 886
5.22 928
5.28 835
5.34 916
5.4 913
5.46 901
5.52 837
5.58 807
5.64 801
5.7 776
5.76 734
5.82 763
5.88 749
5.94 778
6 752
6.06 705
6.12 673
6.18 698
6.24 673
6.3 685
6.36 659
6.42 662
6.48 647
6.54 659
6.6 657
6.66 628
6.72 617
6.78 626
6.84 631
6.9 627
6.96 628
7.02 574
7.08 630
7.14 656
7.2 625
7.26 593
7.32 614
7.38 583
7.44 596
7.5 570
7.56 602
7.62 600
7.68 586
7.74 595
7.8 564
7.86 591
7.92 542
7.98 583
8.04 591
8.1 540
8.16 547
8.22 544
8.28 557
8.34 540
8.4 522
8.46 553
8.52 555
8.58 532
8.64 574
8.7 553
8.76 559
8.82 548
8.88 569
8.94 552
9 556
9.06 550
9.12 512
9.18 518
9.24 532
9.3 541
9.36 578
9.42 520
9.48 526
9.54 502
9.6 511
9.66 497
9.72 468
9.78 497
9.84 488
9.9 492
9.96 503
10.02 467
10.08 470
10.14 527
10.2 463
10.26 459
10.32 463
10.38 450
10.44 498
10.5 492
10.56 495
10.62 462
10.68 523
10.74 501
10.8 467
10.86 450
10.92 457
10.98 460
11.04 490
11.1 441
11.16 452
11.22 485
11.28 471
11.34 423
11.4 450
11.46 455
11.52 424
11.58 440
11.64 446
11.7 492
11.76 469
11.82 461
11.88 454
11.94 452
12 480
12.06 472
12.12 468
12.18 477
12.24 427
12.3 499
12.36 485
12.42 476
12.48 430
12.54 445
12.6 491
12.66 462
12.72 440
12.78 476
12.84 449
12.9 457
12.96 448
13.02 485
13.08 464
13.14 470
13.2 504
13.26 490
13.32 469
13.38 453
13.44 465
13.5 452
13.56 483
13.62 486
13.68 481
13.74 454
13.8 471
13.86 503
13.92 499
13.98 468
14.04 485
14.1 483
14.16 483
14.22 467
14.28 512
14.34 499
14.4 501
14.46 487
14.52 490
14.58 492
14.64 509
14.7 532
14.76 515
14.82 532
14.88 484
14.94 507
15 510
15.06 520
15.12 503
15.18 491
15.24 544
15.3 519
15.36 540
15.42 531
15.48 555
15.54 520
15.6 550
15.66 504
15.72 520
15.78 539
15.84 540
15.9 525
15.96 543
16.02 586
16.08 556
16.14 517
16.2 582
16.26 557
16.32 615
16.38 557
16.44 637
16.5 618
16.56 612
16.62 662
16.68 669
16.74 758
16.8 887
16.86 1065
16.92 1699
16.98 1700
17.04 1159
17.1 880
17.16 716
17.22 646
17.28 667
17.34 673
17.4 681
17.46 632
17.52 673
17.58 673
17.64 677
17.7 669
17.76 660
17.82 735
17.88 722
17.94 719
18 731
18.06 698
18.12 726
18.18 722
18.24 717
18.3 714
18.36 747
18.42 776
18.48 779
18.54 727
18.6 721
18.66 785
18.72 763
18.78 763
18.84 756
18.9 708
18.96 763
19.02 827
19.08 772
19.14 791
19.2 781
19.26 748
19.32 829
19.38 801
19.44 850
19.5 817
19.56 872
19.62 874
19.68 789
19.74 841
19.8 834
19.86 872
19.92 870
19.98 846
20 927

File: 36-16.ASC
3 3140
3.06 2792
3.12 2485
3.18 2447
3.24 2339
3.3 2231
3.36 2177
3.42 2044
3.48 2047
3.54 1917
3.6 1909
3.66 1768
3.72 1777
3.78 1697
3.84 1662
3.9 1600
3.96 1591
4.02 1540
4.08 1559
4.14 1489
4.2 1460
4.26 1358
4.32 1295
4.38 1232
4.44 1236
4.5 1123
4.56 1103
4.62 1148
4.68 1148
4.74 1117
4.8 1111
4.86 1039
4.92 997
4.98 1105
5.04 1060
5.1 1052
5.16 1122
5.22 1169
5.28 1233
5.34 1377
5.4 1454
5.46 1374
5.52 1323
5.58 1382
5.64 1453
5.7 1580
5.76 1633
5.82 1354
5.88 946
5.94 865
6 832
6.06 780
6.12 794
6.18 705
6.24 717
6.3 745
6.36 704
6.42 704
6.48 689
6.54 709
6.6 696
6.66 701
6.72 733
6.78 726
6.84 646
6.9 660
6.96 615
7.02 619
7.08 597
7.14 631
7.2 625
7.26 604
7.32 590
7.38 558
7.44 570
7.5 620
7.56 530
7.62 573
7.68 582
7.74 553
7.8 553
7.86 609
7.92 601
7.98 539
8.04 579
8.1 559
8.16 550
8.22 564
8.28 549
8.34 523
8.4 539
8.46 535
8.52 509
8.58 514
8.64 505
8.7 498
8.76 529
8.82 520
8.88 536
8.94 533
9 558
9.06 621
9.12 610
9.18 565
9.24 692
9.3 845
9.36 672
9.42 581
9.48 528
9.54 468
9.6 507
9.66 493
9.72 503
9.78 463
9.84 482
9.9 460
9.96 486
10.02 489
10.08 539
10.14 550
10.2 541
10.26 516
10.32 483
10.38 481
10.44 493
10.5 478
10.56 445
10.62 535
10.68 553
10.74 592
10.8 527
10.86 574
10.92 624
10.98 556
11.04 454
11.1 497
11.16 481
11.22 450
11.28 475
11.34 504
11.4 499
11.46 482
11.52 492
11.58 493
11.64 479
11.7 444
11.76 463
11.82 441
11.88 496
11.94 449
12 459
12.06 474
12.12 491
12.18 476
12.24 497
12.3 470
12.36 449
12.42 449
12.48 470
12.54 463
12.6 419
12.66 429
12.72 433
12.78 456
12.84 409
12.9 466
12.96 449
13.02 419
13.08 429
13.14 481
13.2 493
13.26 496
13.32 481
13.38 468
13.44 473
13.5 479
13.56 481
13.62 503
13.68 434
13.74 462
13.8 486
13.86 457
13.92 467
13.98 496
14.04 472
14.1 483
14.16 470
14.22 474
14.28 474
14.34 506
14.4 487
14.46 449
14.52 455
14.58 483
14.64 484
14.7 436
14.76 521
14.82 481
14.88 549
14.94 493
15 457
15.06 524
15.12 509
15.18 493
15.24 505
15.3 536
15.36 526
15.42 525
15.48 504
15.54 527
15.6 563
15.66 536
15.72 557
15.78 543
15.84 568
15.9 557
15.96 574
16.02 517
16.08 558
16.14 560
16.2 569
16.26 580
16.32 574
16.38 564
16.44 575
16.5 601
16.56 550
16.62 589
16.68 641
16.74 657
16.8 727
16.86 791
16.92 1068
16.98 1344
17.04 846
17.1 723
17.16 630
17.22 695
17.28 604
17.34 612
17.4 623
17.46 626
17.52 649
17.58 654
17.64 641
17.7 682
17.76 598
17.82 661
17.88 640
17.94 649
18 667
18.06 671
18.12 697
18.18 694
18.24 677
18.3 685
18.36 738
18.42 710
18.48 713
18.54 651
18.6 762
18.66 753
18.72 744
18.78 763
18.84 749
18.9 766
18.96 787
19.02 809
19.08 853
19.14 813
19.2 815
19.26 811
19.32 859
19.38 849
19.44 876
19.5 931
19.56 900
19.62 817
19.68 840
19.74 826
19.8 885
19.86 845
19.92 877
19.98 851
20 826

File: 36-18.ASC
3 1835
3.06 1674
3.12 1569
3.18 1529
3.24 1549
3.3 1500
3.36 1327
3.42 1468
3.48 1393
3.54 1342
3.6 1335
3.66 1268
3.72 1270
3.78 1193
3.84 1249
3.9 1153
3.96 1169
4.02 1206
4.08 1095
4.14 1084
4.2 1062
4.26 1089
4.32 989
4.38 1033
4.44 969
4.5 911
4.56 959
4.62 938
4.68 911
4.74 900
4.8 915
4.86 873
4.92 870
4.98 822
5.04 795
5.1 804
5.16 806
5.22 816
5.28 815
5.34 760
5.4 735
5.46 731
5.52 731
5.58 737
5.64 688
5.7 686
5.76 713
5.82 734
5.88 697
5.94 683
6 631
6.06 662
6.12 671
6.18 642
6.24 649
6.3 629
6.36 649
6.42 627
6.48 637
6.54 661
6.6 585
6.66 677
6.72 626
6.78 606
6.84 627
6.9 630
6.96 649
7.02 611
7.08 603
7.14 567
7.2 575
7.26 630
7.32 626
7.38 576
7.44 639
7.5 578
7.56 657
7.62 585
7.68 605
7.74 597
7.8 640
7.86 583
7.92 593
7.98 574
8.04 581
8.1 563
8.16 518
8.22 630
8.28 556
8.34 560
8.4 547
8.46 547
8.52 540
8.58 571
8.64 564
8.7 535
8.76 565
8.82 523
8.88 543
8.94 525
9 538
9.06 591
9.12 532
9.18 528
9.24 545
9.3 559
9.36 501
9.42 495
9.48 565
9.54 502
9.6 549
9.66 569
9.72 508
9.78 564
9.84 517
9.9 501
9.96 529
10.02 528
10.08 544
10.14 557
10.2 524
10.26 488
10.32 499
10.38 539
10.44 508
10.5 524
10.56 521
10.62 520
10.68 545
10.74 553
10.8 542
10.86 510
10.92 535
10.98 495
11.04 498
11.1 500
11.16 499
11.22 482
11.28 576
11.34 531
11.4 544
11.46 552
11.52 538
11.58 547
11.64 557
11.7 533
11.76 515
11.82 490
11.88 509
11.94 571
12 548
12.06 539
12.12 532
12.18 511
12.24 501
12.3 539
12.36 562
12.42 543
12.48 540
12.54 541
12.6 522
12.66 567
12.72 551
12.78 523
12.84 505
12.9 553
12.96 521
13.02 560
13.08 527
13.14 559
13.2 568
13.26 585
13.32 636
13.38 609
13.44 639
13.5 563
13.56 566
13.62 577
13.68 607
13.74 579
13.8 582
13.86 609
13.92 614
13.98 605
14.04 580
14.1 613
14.16 618
14.22 580
14.28 615
14.34 595
14.4 609
14.46 627
14.52 601
14.58 626
14.64 617
14.7 651
14.76 654
14.82 645
14.88 660
14.94 628
15 662
15.06 674
15.12 663
15.18 675
15.24 679
15.3 686
15.36 657
15.42 702
15.48 699
15.54 699
15.6 715
15.66 721
15.72 722
15.78 705
15.84 738
15.9 726
15.96 716
16.02 739
16.08 713
16.14 736
16.2 795
16.26 771
16.32 778
16.38 795
16.44 795
16.5 815
16.56 785
16.62 901
16.68 930
16.74 988
16.8 1197
16.86 1544
16.92 2196
16.98 3195
17.04 2747
17.1 1784
17.16 1273
17.22 1083
17.28 934
17.34 905
17.4 909
17.46 946
17.52 948
17.58 936
17.64 924
17.7 898
17.76 977
17.82 974
17.88 958
17.94 972
18 985
18.06 949
18.12 989
18.18 972
18.24 980
18.3 990
18.36 1074
18.42 1042
18.48 1025
18.54 1041
18.6 1036
18.66 1025
18.72 1054
18.78 1046
18.84 1106
18.9 1124
18.96 1122
19.02 1168
19.08 1162
19.14 1197
19.2 1154
19.26 1095
19.32 1161
19.38 1130
19.44 1161
19.5 1159
19.56 1193
19.62 1167
19.68 1210
19.74 1256
19.8 1230
19.86 1242
19.92 1252
19.98 1273
20 1296

File: 36-20.ASC
3 2553
3.06 2304
3.12 2129
3.18 2011
3.24 1977
3.3 1956
3.36 1819
3.42 1785
3.48 1700
3.54 1600
3.6 1657
3.66 1525
3.72 1550
3.78 1443
3.84 1449
3.9 1354
3.96 1324
4.02 1285
4.08 1221
4.14 1219
4.2 1240
4.26 1172
4.32 1120
4.38 1099
4.44 1051
4.5 1060
4.56 990
4.62 1000
4.68 949
4.74 953
4.8 888
4.86 902
4.92 885
4.98 872
5.04 869
5.1 834
5.16 819
5.22 744
5.28 833
5.34 786
5.4 781
5.46 728
5.52 746
5.58 742
5.64 732
5.7 696
5.76 728
5.82 687
5.88 687
5.94 780
6 709
6.06 651
6.12 686
6.18 651
6.24 624
6.3 614
6.36 661
6.42 602
6.48 639
6.54 643
6.6 598
6.66 619
6.72 596
6.78 626
6.84 623
6.9 566
6.96 598
7.02 591
7.08 580
7.14 579
7.2 594
7.26 596
7.32 584
7.38 571
7.44 577
7.5 560
7.56 544
7.62 542
7.68 514
7.74 564
7.8 554
7.86 547
7.92 537
7.98 535
8.04 579
8.1 512
8.16 494
8.22 505
8.28 532
8.34 499
8.4 526
8.46 518
8.52 488
8.58 531
8.64 501
8.7 538
8.76 518
8.82 505
8.88 479
8.94 516
9 470
9.06 486
9.12 514
9.18 497
9.24 502
9.3 511
9.36 458
9.42 479
9.48 497
9.54 484
9.6 463
9.66 496
9.72 436
9.78 476
9.84 491
9.9 469
9.96 497
10.02 461
10.08 470
10.14 459
10.2 490
10.26 511
10.32 477
10.38 457
10.44 497
10.5 464
10.56 473
10.62 474
10.68 462
10.74 522
10.8 457
10.86 454
10.92 458
10.98 476
11.04 420
11.1 469
11.16 445
11.22 420
11.28 470
11.34 455
11.4 485
11.46 430
11.52 500
11.58 470
11.64 484
11.7 468
11.76 448
11.82 481
11.88 458
11.94 431
12 494
12.06 469
12.12 467
12.18 484
12.24 523
12.3 481
12.36 467
12.42 437
12.48 432
12.54 521
12.6 471
12.66 436
12.72 493
12.78 461
12.84 507
12.9 502
12.96 475
13.02 469
13.08 462
13.14 508
13.2 543
13.26 510
13.32 532
13.38 491
13.44 498
13.5 496
13.56 481
13.62 505
13.68 541
13.74 502
13.8 561
13.86 521
13.92 509
13.98 524
14.04 516
14.1 522
14.16 519
14.22 525
14.28 570
14.34 557
14.4 537
14.46 530
14.52 538
14.58 570
14.64 563
14.7 557
14.76 569
14.82 566
14.88 560
14.94 552
15 570
15.06 581
15.12 574
15.18 602
15.24 605
15.3 587
15.36 595
15.42 572
15.48 552
15.54 585
15.6 597
15.66 634
15.72 636
15.78 644
15.84 618
15.9 589
15.96 649
16.02 636
16.08 647
16.14 669
16.2 614
16.26 668
16.32 670
16.38 669
16.44 687
16.5 731
16.56 708
16.62 703
16.68 765
16.74 830
16.8 1016
16.86 1305
16.92 1865
16.98 2514
17.04 2091
17.1 1200
17.16 864
17.22 834
17.28 747
17.34 727
17.4 725
17.46 756
17.52 735
17.58 771
17.64 785
17.7 794
17.76 778
17.82 794
17.88 791
17.94 803
18 856
18.06 832
18.12 847
18.18 864
18.24 806
18.3 860
18.36 858
18.42 828
18.48 879
18.54 898
18.6 853
18.66 891
18.72 892
18.78 920
18.84 936
18.9 891
18.96 976
19.02 939
19.08 967
19.14 974
19.2 966
19.26 953
19.32 946
19.38 974
19.44 980
19.5 944
19.56 1005
19.62 1044
19.68 1053
19.74 1032
19.8 1054
19.86 1046
19.92 1033
19.98 1057
20 1033

File: 36-25.ASC
3 1448
3.06 1347
3.12 1347
3.18 1270
3.24 1309
3.3 1212
3.36 1208
3.42 1143
3.48 1130
3.54 1101
3.6 1118
3.66 1136
3.72 1151
3.78 1087
3.84 1001
3.9 1106
3.96 1060
4.02 1022
4.08 981
4.14 961
4.2 1017
4.26 1005
4.32 909
4.38 1019
4.44 1006
4.5 1028
4.56 1023
4.62 1008
4.68 982
4.74 915
4.8 937
4.86 945
4.92 965
4.98 1018
5.04 960
5.1 977
5.16 977
5.22 956
5.28 1037
5.34 1035
5.4 1127
5.46 1295
5.52 1424
5.58 1204
5.64 884
5.7 890
5.76 851
5.82 755
5.88 761
5.94 718
6 708
6.06 695
6.12 694
6.18 619
6.24 634
6.3 613
6.36 583
6.42 616
6.48 563
6.54 570
6.6 582
6.66 591
6.72 588
6.78 576
6.84 545
6.9 529
6.96 516
7.02 529
7.08 503
7.14 533
7.2 545
7.26 523
7.32 509
7.38 464
7.44 517
7.5 507
7.56 509
7.62 513
7.68 494
7.74 505
7.8 452
7.86 487
7.92 522
7.98 494
8.04 475
8.1 490
8.16 483
8.22 464
8.28 491
8.34 464
8.4 468
8.46 436
8.52 480
8.58 456
8.64 420
8.7 446
8.76 472
8.82 456
8.88 463
8.94 481
9 441
9.06 479
9.12 468
9.18 503
9.24 444
9.3 513
9.36 561
9.42 627
9.48 568
9.54 520
9.6 470
9.66 452
9.72 413
9.78 446
9.84 440
9.9 406
9.96 429
10.02 419
10.08 419
10.14 436
10.2 478
10.26 452
10.32 436
10.38 470
10.44 437
10.5 457
10.56 464
10.62 462
10.68 456
10.74 502
10.8 500
10.86 523
10.92 467
10.98 437
11.04 432
11.1 436
11.16 437
11.22 453
11.28 404
11.34 437
11.4 449
11.46 405
11.52 410
11.58 400
11.64 440
11.7 443
11.76 450
11.82 438
11.88 408
11.94 417
12 444
12.06 450
12.12 442
12.18 438
12.24 440
12.3 453
12.36 444
12.42 456
12.48 444
12.54 423
12.6 427
12.66 443
12.72 462
12.78 444
12.84 483
12.9 420
12.96 412
13.02 451
13.08 460
13.14 427
13.2 463
13.26 466
13.32 494
13.38 456
13.44 463
13.5 467
13.56 473
13.62 502
13.68 462
13.74 485
13.8 471
13.86 489
13.92 445
13.98 430
14.04 479
14.1 500
14.16 487
14.22 490
14.28 499
14.34 496
14.4 498
14.46 476
14.52 470
14.58 533
14.64 507
14.7 496
14.76 501
14.82 482
14.88 508
14.94 460
15 483
15.06 485
15.12 517
15.18 494
15.24 499
15.3 508
15.36 554
15.42 522
15.48 539
15.54 503
15.6 506
15.66 512
15.72 569
15.78 529
15.84 534
15.9 503
15.96 531
16.02 513
16.08 529
16.14 558
16.2 589
16.26 565
16.32 559
16.38 580
16.44 587
16.5 605
16.56 625
16.62 606
16.68 589
16.74 585
16.8 604
16.86 691
16.92 758
16.98 1062
17.04 1987
17.1 2355
17.16 1181
17.22 795
17.28 657
17.34 652
17.4 617
17.46 687
17.52 666
17.58 682
17.64 658
17.7 709
17.76 672
17.82 639
17.88 730
17.94 651
18 777
18.06 684
18.12 722
18.18 667
18.24 714
18.3 693
18.36 733
18.42 740
18.48 751
18.54 719
18.6 734
18.66 738
18.72 780
18.78 781
18.84 774
18.9 812
18.96 798
19.02 784
19.08 816
19.14 759
19.2 784
19.26 823
19.32 846
19.38 805
19.44 876
19.5 857
19.56 886
19.62 886
19.68 788
19.74 849
19.8 878
19.86 846
19.92 879
19.98 887
20 902

File: 36-26.ASC
3 395
3.06 358
3.12 324
3.18 354
3.24 343
3.3 329
3.36 343
3.42 344
3.48 317
3.54 319
3.6 360
3.66 348
3.72 319
3.78 344
3.84 346
3.9 364
3.96 363
4.02 378
4.08 369
4.14 397
4.2 386
4.26 396
4.32 380
4.38 382
4.44 422
4.5 424
4.56 423
4.62 429
4.68 413
4.74 432
4.8 441
4.86 464
4.92 423
4.98 492
5.04 453
5.1 437
5.16 492
5.22 445
5.28 455
5.34 432
5.4 519
5.46 491
5.52 501
5.58 529
5.64 556
5.7 531
5.76 505
5.82 427
5.88 409
5.94 336
6 323
6.06 306
6.12 291
6.18 292
6.24 289
6.3 261
6.36 275
6.42 245
6.48 266
6.54 237
6.6 261
6.66 259
6.72 216
6.78 248
6.84 263
6.9 214
6.96 241
7.02 237
7.08 256
7.14 222
7.2 215
7.26 228
7.32 217
7.38 202
7.44 221
7.5 229
7.56 195
7.62 229
7.68 227
7.74 199
7.8 212
7.86 218
7.92 226
7.98 192
8.04 216
8.1 191
8.16 236
8.22 183
8.28 201
8.34 194
8.4 212
8.46 226
8.52 213
8.58 204
8.64 204
8.7 189
8.76 187
8.82 211
8.88 212
8.94 191
9 206
9.06 186
9.12 186
9.18 192
9.24 198
9.3 209
9.36 220
9.42 231
9.48 206
9.54 216
9.6 228
9.66 232
9.72 206
9.78 192
9.84 195
9.9 213
9.96 176
10.02 181
10.08 210
10.14 199
10.2 168
10.26 160
10.32 171
10.38 168
10.44 168
10.5 169
10.56 201
10.62 168
10.68 183
10.74 181
10.8 175
10.86 185
10.92 163
10.98 206
11.04 180
11.1 168
11.16 187
11.22 177
11.28 170
11.34 164
11.4 174
11.46 169
11.52 168
11.58 160
11.64 159
11.7 176
11.76 145
11.82 175
11.88 180
11.94 148
12 164
12.06 163
12.12 182
12.18 152
12.24 168
12.3 161
12.36 168
12.42 149
12.48 176
12.54 165
12.6 169
12.66 164
12.72 176
12.78 158
12.84 176
12.9 177
12.96 149
13.02 162
13.08 170
13.14 166
13.2 175
13.26 168
13.32 150
13.38 149
13.44 162
13.5 172
13.56 177
13.62 161
13.68 162
13.74 166
13.8 138
13.86 153
13.92 174
13.98 178
14.04 168
14.1 160
14.16 158
14.22 163
14.28 168
14.34 171
14.4 161
14.46 173
14.52 163
14.58 160
14.64 172
14.7 171
14.76 158
14.82 173
14.88 149
14.94 163
15 152
15.06 151
15.12 161
15.18 157
15.24 165
15.3 170
15.36 152
15.42 180
15.48 175
15.54 153
15.6 160
15.66 152
15.72 184
15.78 181
15.84 147
15.9 184
15.96 164
16.02 183
16.08 187
16.14 156
16.2 185
16.26 157
16.32 165
16.38 190
16.44 180
16.5 177
16.56 171
16.62 184
16.68 183
16.74 178
16.8 187
16.86 200
16.92 183
16.98 195
17.04 208
17.1 177
17.16 206
17.22 215
17.28 238
17.34 231
17.4 205
17.46 192
17.52 167
17.58 209
17.64 164
17.7 168
17.76 196
17.82 199
17.88 200
17.94 179
18 190
18.06 183
18.12 203
18.18 147
18.24 181
18.3 184
18.36 193
18.42 189
18.48 193
18.54 193
18.6 194
18.66 193
18.72 163
18.78 194
18.84 207
18.9 176
18.96 216
19.02 175
19.08 200
19.14 197
19.2 201
19.26 184
19.32 170
19.38 212
19.44 187
19.5 199
19.56 177
19.62 190
19.68 219
19.74 211
19.8 205
19.86 210
19.92 198
19.98 191
20 210

File: 36-27.ASC
3 1817
3.06 1698
3.12 1680
3.18 1666
3.24 1519
3.3 1596
3.36 1493
3.42 1466
3.48 1490
3.54 1436
3.6 1389
3.66 1363
3.72 1397
3.78 1374
3.84 1405
3.9 1425
3.96 1427
4.02 1412
4.08 1361
4.14 1348
4.2 1303
4.26 1318
4.32 1318
4.38 1304
4.44 1379
4.5 1300
4.56 1351
4.62 1326
4.68 1344
4.74 1244
4.8 1298
4.86 1365
4.92 1321
4.98 1354
5.04 1342
5.1 1382
5.16 1387
5.22 1399
5.28 1503
5.34 1605
5.4 1873
5.46 1875
5.52 1404
5.58 1254
5.64 1217
5.7 1235
5.76 1219
5.82 1112
5.88 964
5.94 926
6 900
6.06 798
6.12 831
6.18 841
6.24 789
6.3 805
6.36 778
6.42 750
6.48 756
6.54 737
6.6 743
6.66 717
6.72 738
6.78 704
6.84 636
6.9 644
6.96 671
7.02 693
7.08 658
7.14 638
7.2 624
7.26 603
7.32 639
7.38 620
7.44 597
7.5 604
7.56 610
7.62 603
7.68 595
7.74 600
7.8 586
7.86 554
7.92 605
7.98 557
8.04 575
8.1 573
8.16 562
8.22 598
8.28 581
8.34 524
8.4 589
8.46 595
8.52 557
8.58 536
8.64 552
8.7 554
8.76 554
8.82 536
8.88 499
8.94 579
9 534
9.06 552
9.12 564
9.18 618
9.24 607
9.3 651
9.36 783
9.42 586
9.48 602
9.54 493
9.6 561
9.66 546
9.72 533
9.78 515
9.84 500
9.9 545
9.96 548
10.02 520
10.08 563
10.14 550
10.2 523
10.26 488
10.32 493
10.38 534
10.44 472
10.5 527
10.56 524
10.62 520
10.68 530
10.74 586
10.8 606
10.86 551
10.92 551
10.98 511
11.04 526
11.1 516
11.16 503
11.22 477
11.28 480
11.34 475
11.4 457
11.46 517
11.52 491
11.58 496
11.64 489
11.7 466
11.76 497
11.82 514
11.88 516
11.94 484
12 467
12.06 464
12.12 483
12.18 525
12.24 485
12.3 487
12.36 507
12.42 477
12.48 507
12.54 522
12.6 523
12.66 502
12.72 503
12.78 496
12.84 503
12.9 468
12.96 490
13.02 513
13.08 521
13.14 541
13.2 552
13.26 551
13.32 488
13.38 503
13.44 518
13.5 505
13.56 496
13.62 520
13.68 484
13.74 526
13.8 478
13.86 547
13.92 495
13.98 530
14.04 554
14.1 468
14.16 478
14.22 526
14.28 565
14.34 509
14.4 560
14.46 520
14.52 548
14.58 561
14.64 515
14.7 528
14.76 528
14.82 550
14.88 554
14.94 528
15 530
15.06 581
15.12 554
15.18 558
15.24 541
15.3 576
15.36 554
15.42 546
15.48 532
15.54 582
15.6 586
15.66 551
15.72 549
15.78 575
15.84 555
15.9 583
15.96 592
16.02 616
16.08 571
16.14 587
16.2 592
16.26 595
16.32 615
16.38 596
16.44 632
16.5 601
16.56 642
16.62 610
16.68 622
16.74 674
16.8 670
16.86 768
16.92 828
16.98 1146
17.04 1524
17.1 1020
17.16 668
17.22 682
17.28 694
17.34 683
17.4 664
17.46 713
17.52 723
17.58 721
17.64 702
17.7 710
17.76 733
17.82 687
17.88 713
17.94 712
18 714
18.06 775
18.12 763
18.18 743
18.24 756
18.3 731
18.36 764
18.42 787
18.48 813
18.54 784
18.6 731
18.66 786
18.72 812
18.78 818
18.84 781
18.9 808
18.96 840
19.02 882
19.08 823
19.14 811
19.2 841
19.26 844
19.32 833
19.38 910
19.44 955
19.5 894
19.56 894
19.62 865
19.68 928
19.74 890
19.8 873
19.86 877
19.92 918
19.98 899
20 917

File: 36-29.ASC
3 2110
3.06 2002
3.12 1875
3.18 1829
3.24 1774
3.3 1676
3.36 1703
3.42 1605
3.48 1569
3.54 1484
3.6 1425
3.66 1384
3.72 1411
3.78 1322
3.84 1373
3.9 1279
3.96 1244
4.02 1303
4.08 1236
4.14 1200
4.2 1165
4.26 1199
4.32 1186
4.38 1189
4.44 1069
4.5 1152
4.56 1159
4.62 1137
4.68 1102
4.74 1121
4.8 1104
4.86 1107
4.92 1199
4.98 1116
5.04 1108
5.1 1270
5.16 1234
5.22 1302
5.28 1489
5.34 1761
5.4 2222
5.46 2301
5.52 1467
5.58 1190
5.64 1054
5.7 1000
5.76 978
5.82 988
5.88 906
5.94 827
6 872
6.06 791
6.12 821
6.18 781
6.24 665
6.3 749
6.36 713
6.42 718
6.48 746
6.54 734
6.6 664
6.66 692
6.72 720
6.78 644
6.84 670
6.9 677
6.96 617
7.02 618
7.08 622
7.14 610
7.2 669
7.26 592
7.32 632
7.38 587
7.44 606
7.5 630
7.56 614
7.62 590
7.68 522
7.74 601
7.8 618
7.86 554
7.92 586
7.98 609
8.04 531
8.1 570
8.16 555
8.22 560
8.28 582
8.34 576
8.4 567
8.46 558
8.52 597
8.58 592
8.64 585
8.7 593
8.76 567
8.82 595
8.88 597
8.94 613
9 558
9.06 577
9.12 673
9.18 648
9.24 722
9.3 822
9.36 989
9.42 751
9.48 621
9.54 575
9.6 564
9.66 568
9.72 528
9.78 562
9.84 553
9.9 581
9.96 526
10.02 575
10.08 534
10.14 541
10.2 542
10.26 556
10.32 549
10.38 551
10.44 500
10.5 528
10.56 579
10.62 539
10.68 589
10.74 663
10.8 757
10.86 674
10.92 597
10.98 597
11.04 557
11.1 556
11.16 590
11.22 556
11.28 493
11.34 559
11.4 500
11.46 531
11.52 551
11.58 543
11.64 537
11.7 547
11.76 542
11.82 543
11.88 550
11.94 519
12 505
12.06 495
12.12 498
12.18 555
12.24 563
12.3 541
12.36 544
12.42 542
12.48 534
12.54 538
12.6 526
12.66 579
12.72 523
12.78 565
12.84 563
12.9 551
12.96 546
13.02 595
13.08 539
13.14 522
13.2 541
13.26 587
13.32 584
13.38 588
13.44 578
13.5 602
13.56 515
13.62 568
13.68 559
13.74 603
13.8 553
13.86 560
13.92 589
13.98 604
14.04 574
14.1 625
14.16 602
14.22 610
14.28 614
14.34 601
14.4 605
14.46 599
14.52 628
14.58 561
14.64 617
14.7 614
14.76 585
14.82 616
14.88 647
14.94 614
15 613
15.06 649
15.12 582
15.18 630
15.24 636
15.3 635
15.36 646
15.42 646
15.48 654
15.54 672
15.6 651
15.66 663
15.72 664
15.78 696
15.84 659
15.9 662
15.96 692
16.02 703
16.08 700
16.14 663
16.2 674
16.26 712
16.32 700
16.38 720
16.44 733
16.5 736
16.56 711
16.62 730
16.68 767
16.74 753
16.8 810
16.86 897
16.92 1089
16.98 1510
17.04 1893
17.1 1171
17.16 908
17.22 800
17.28 775
17.34 798
17.4 812
17.46 810
17.52 871
17.58 837
17.64 833
17.7 865
17.76 829
17.82 843
17.88 874
17.94 857
18 855
18.06 845
18.12 871
18.18 902
18.24 891
18.3 900
18.36 881
18.42 925
18.48 921
18.54 954
18.6 917
18.66 954
18.72 1031
18.78 941
18.84 996
18.9 1049
18.96 968
19.02 974
19.08 1057
19.14 1027
19.2 1002
19.26 1008
19.32 1064
19.38 1093
19.44 1116
19.5 1110
19.56 1079
19.62 1103
19.68 1053
19.74 1027
19.8 1108
19.86 1106
19.92 1127
19.98 1154
20 1126

File: 36-30.ASC
3 944
3.06 858
3.12 758
3.18 813
3.24 767
3.3 756
3.36 744
3.42 727
3.48 695
3.54 686
3.6 702
3.66 670
3.72 725
3.78 698
3.84 693
3.9 667
3.96 714
4.02 701
4.08 675
4.14 691
4.2 679
4.26 702
4.32 650
4.38 664
4.44 717
4.5 719
4.56 661
4.62 655
4.68 691
4.74 677
4.8 697
4.86 654
4.92 688
4.98 685
5.04 644
5.1 698
5.16 720
5.22 695
5.28 726
5.34 776
5.4 760
5.46 803
5.52 876
5.58 898
5.64 956
5.7 1037
5.76 1030
5.82 854
5.88 720
5.94 683
6 641
6.06 588
6.12 551
6.18 541
6.24 522
6.3 555
6.36 514
6.42 481
6.48 488
6.54 476
6.6 475
6.66 466
6.72 461
6.78 464
6.84 453
6.9 444
6.96 472
7.02 450
7.08 401
7.14 465
7.2 452
7.26 398
7.32 452
7.38 452
7.44 410
7.5 401
7.56 439
7.62 421
7.68 424
7.74 373
7.8 406
7.86 371
7.92 394
7.98 392
8.04 388
8.1 383
8.16 362
8.22 370
8.28 370
8.34 394
8.4 386
8.46 350
8.52 344
8.58 397
8.64 397
8.7 333
8.76 351
8.82 375
8.88 348
8.94 355
9 368
9.06 375
9.12 377
9.18 389
9.24 344
9.3 362
9.36 369
9.42 377
9.48 411
9.54 453
9.6 455
9.66 461
9.72 467
9.78 412
9.84 373
9.9 373
9.96 360
10.02 344
10.08 366
10.14 330
10.2 349
10.26 304
10.32 334
10.38 348
10.44 362
10.5 320
10.56 351
10.62 333
10.68 333
10.74 345
10.8 349
10.86 340
10.92 326
10.98 333
11.04 342
11.1 333
11.16 314
11.22 336
11.28 340
11.34 334
11.4 345
11.46 337
11.52 290
11.58 315
11.64 313
11.7 282
11.76 318
11.82 288
11.88 310
11.94 317
12 287
12.06 291
12.12 278
12.18 326
12.24 317
12.3 323
12.36 311
12.42 319
12.48 337
12.54 291
12.6 292
12.66 280
12.72 303
12.78 310
12.84 299
12.9 346
12.96 338
13.02 321
13.08 335
13.14 298
13.2 303
13.26 305
13.32 301
13.38 322
13.44 321
13.5 331
13.56 287
13.62 328
13.68 306
13.74 287
13.8 341
13.86 321
13.92 283
13.98 298
14.04 334
14.1 346
14.16 303
14.22 331
14.28 318
14.34 314
14.4 320
14.46 334
14.52 338
14.58 300
14.64 352
14.7 319
14.76 309
14.82 299
14.88 311
14.94 356
15 323
15.06 333
15.12 321
15.18 338
15.24 342
15.3 330
15.36 352
15.42 360
15.48 348
15.54 341
15.6 361
15.66 358
15.72 344
15.78 320
15.84 324
15.9 343
15.96 334
16.02 348
16.08 335
16.14 362
16.2 360
16.26 367
16.32 374
16.38 367
16.44 383
16.5 388
16.56 359
16.62 368
16.68 380
16.74 382
16.8 389
16.86 421
16.92 409
16.98 469
17.04 452
17.1 479
17.16 504
17.22 524
17.28 586
17.34 595
17.4 471
17.46 444
17.52 426
17.58 403
17.64 385
17.7 472
17.76 446
17.82 425
17.88 427
17.94 457
18 430
18.06 453
18.12 404
18.18 427
18.24 438
18.3 445
18.36 482
18.42 440
18.48 467
18.54 439
18.6 452
18.66 439
18.72 478
18.78 460
18.84 457
18.9 494
18.96 464
19.02 449
19.08 464
19.14 474
19.2 513
19.26 492
19.32 467
19.38 479
19.44 492
19.5 513
19.56 516
19.62 557
19.68 540
19.74 521
19.8 511
19.86 565
19.92 518
19.98 556
20 539