Folder: CPC-code/xrd-UiO-67/pxrddata (part 3)

File: 5-12.ASC
3 1849
3.1 1454
3.2 1309
3.3 1243
3.4 1208
3.5 1154
3.6 1093
3.7 1103
3.8 997
3.9 925
4 961
4.1 867
4.2 837
4.3 822
4.4 812
4.5 749
4.6 731
4.7 765
4.8 665
4.9 744
5 722
5.1 748
5.2 760
5.3 722
5.4 816
5.5 855
5.6 908
5.7 1147
5.8 1617
5.9 800
6 774
6.1 772
6.2 683
6.3 772
6.4 748
6.5 847
6.6 980
6.7 1355
6.8 742
6.9 767
7 746
7.1 788
7.2 818
7.3 944
7.4 1098
7.5 1441
7.6 770
7.7 714
7.8 693
7.9 685
8 736
8.1 710
8.2 759
8.3 785
8.4 809
8.5 891
8.6 1090
8.7 829
8.8 735
8.9 709
9 713
9.1 774
9.2 776
9.3 1021
9.4 1377
9.5 848
9.6 702
9.7 732
9.8 725
9.9 718
10 747
10.1 761
10.2 746
10.3 754
10.4 738
10.5 777
10.6 754
10.7 862
10.8 854
10.9 963
11 1435
11.1 1006
11.2 810
11.3 820
11.4 920
11.5 1168
11.6 900
11.7 807
11.8 835
11.9 839
12 834
12.1 983
12.2 954
12.3 827
12.4 837
12.5 807
12.6 878
12.7 919
12.8 898
12.9 856
13 907
13.1 941
13.2 1044
13.3 1064
13.4 985
13.5 969
13.6 975
13.7 960
13.8 1003
13.9 1013
14 1021
14.1 1064
14.2 1128
14.3 1108
14.4 1126
14.5 1228
14.6 1109
14.7 1159
14.8 1214
14.9 1261
15 1154
15.1 1181
15.2 1206
15.3 1225
15.4 1213
15.5 1247
15.6 1305
15.7 1315
15.8 1382
15.9 1322
16 1378
16.1 1394
16.2 1400
16.3 1471
16.4 1526
16.5 1458
16.6 1551
16.7 1539
16.8 1688
16.9 1533
17 1602
17.1 1750
17.2 1886
17.3 1781
17.4 1765
17.5 1716
17.6 1703
17.7 1776
17.8 1739
17.9 1857
18 1872
18.1 1913
18.2 1880
18.3 2010
18.4 1961
18.5 2012
18.6 2062
18.7 2206
18.8 2104
18.9 2093
19 2194
19.1 2111
19.2 2210
19.3 2175
19.4 2300
19.5 2339
19.6 2605
19.7 2597
19.8 2472
19.9 2975
20 2531
20.1 2273
20.2 2357
20.3 2373
20.4 2312
20.5 2247
20.6 2265
20.7 2306
20.8 2404
20.9 2435
21 2366
21.1 2434
21.2 2448
21.3 2372
21.4 2366
21.5 2320
21.6 2377
21.7 2395
21.8 2566
21.9 2394
22 2339
22.1 2286
22.2 2338
22.3 2513
22.4 2369
22.5 2227
22.6 2173
22.7 2235
22.8 2216
22.9 2220
23 2258
23.1 2113
23.2 2159
23.3 2038
23.4 2165
23.5 2068
23.6 2126
23.7 2554
23.8 2544
23.9 2021
24 2161
24.1 1988
24.2 2020
24.3 1987
24.4 2050
24.5 1844
24.6 1897
24.7 1929
24.8 2026
24.9 2393
25 1948
25.1 1864
25.2 1830
25.3 1822
25.4 1981
25.5 2336
25.6 2531
25.7 1985
25.8 2508
25.9 2155
26 1781
26.1 1736
26.2 1715
26.3 1686
26.4 1663
26.5 1735
26.6 2051
26.7 1928
26.8 1622
26.9 1635
27 1589
27.1 1641
27.2 1582
27.3 1593
27.4 1773
27.5 2026
27.6 1706
27.7 1487
27.8 1568
27.9 1486
28 1501
28.1 1542
28.2 1712
28.3 1957
28.4 1518
28.5 1466
28.6 1480
28.7 1478
28.8 1616
28.9 1860
29 1731
29.1 1796
29.2 1421
29.3 1330
29.4 1373
29.5 1362
29.6 1432
29.7 1352
29.8 1438
29.9 1674
30 1424

File: 5-13.ASC
3 2041
3.1 1581
3.2 1451
3.3 1378
3.4 1310
3.5 1254
3.6 1267
3.7 1176
3.8 1072
3.9 1070
4 1043
4.1 987
4.2 932
4.3 894
4.4 911
4.5 894
4.6 825
4.7 877
4.8 853
4.9 823
5 894
5.1 986
5.2 1021
5.3 1160
5.4 1386
5.5 1750
5.6 2278
5.7 3351
5.8 7309
5.9 1241
6 979
6.1 960
6.2 984
6.3 1094
6.4 1271
6.5 1578
6.6 2463
6.7 4259
6.8 914
6.9 780
7 763
7.1 868
7.2 888
7.3 1040
7.4 1385
7.5 1766
7.6 791
7.7 706
7.8 723
7.9 752
8 747
8.1 750
8.2 806
8.3 830
8.4 871
8.5 999
8.6 1222
8.7 878
8.8 806
8.9 812
9 861
9.1 1022
9.2 1216
9.3 1812
9.4 3318
9.5 1024
9.6 809
9.7 788
9.8 775
9.9 781
10 730
10.1 742
10.2 723
10.3 766
10.4 831
10.5 794
10.6 922
10.7 972
10.8 1239
10.9 1674
11 3190
11.1 1239
11.2 964
11.3 1009
11.4 1209
11.5 2039
11.6 938
11.7 806
11.8 767
11.9 844
12 889
12.1 980
12.2 842
12.3 804
12.4 821
12.5 814
12.6 825
12.7 848
12.8 866
12.9 836
13 857
13.1 961
13.2 1022
13.3 1281
13.4 836
13.5 887
13.6 867
13.7 892
13.8 907
13.9 889
14 889
14.1 946
14.2 991
14.3 1017
14.4 1118
14.5 1226
14.6 943
14.7 974
14.8 1028
14.9 994
15 851
15.1 966
15.2 932
15.3 974
15.4 982
15.5 1020
15.6 995
15.7 1016
15.8 1036
15.9 999
16 1077
16.1 1053
16.2 1077
16.3 1056
16.4 1057
16.5 1096
16.6 1106
16.7 1199
16.8 1206
16.9 1193
17 1311
17.1 1318
17.2 1566
17.3 1486
17.4 1178
17.5 1213
17.6 1280
17.7 1288
17.8 1247
17.9 1352
18 1362
18.1 1323
18.2 1315
18.3 1445
18.4 1402
18.5 1434
18.6 1457
18.7 1475
18.8 1477
18.9 1481
19 1527
19.1 1519
19.2 1569
19.3 1543
19.4 1606
19.5 1842
19.6 2296
19.7 2213
19.8 1934
19.9 2961
20 2091
20.1 1693
20.2 1695
20.3 1675
20.4 1705
20.5 1666
20.6 1680
20.7 1691
20.8 1728
20.9 1765
21 1763
21.1 1821
21.2 1693
21.3 1752
21.4 1674
21.5 1714
21.6 1680
21.7 1959
21.8 2112
21.9 1759
22 1728
22.1 1671
22.2 1670
22.3 1702
22.4 1683
22.5 1625
22.6 1613
22.7 1633
22.8 1634
22.9 1658
23 1767
23.1 1645
23.2 1580
23.3 1546
23.4 1573
23.5 1538
23.6 1719
23.7 2425
23.8 2140
23.9 1632
24 1693
24.1 1423
24.2 1390
24.3 1531
24.4 1389
24.5 1374
24.6 1443
24.7 1475
24.8 1682
24.9 2144
25 1417
25.1 1356
25.2 1358
25.3 1316
25.4 1561
25.5 2038
25.6 2245
25.7 1436
25.8 1730
25.9 1396
26 1283
26.1 1219
26.2 1213
26.3 1269
26.4 1255
26.5 1249
26.6 1829
26.7 1560
26.8 1243
26.9 1196
27 1135
27.1 1150
27.2 1080
27.3 1243
27.4 1613
27.5 1866
27.6 1158
27.7 1095
27.8 1074
27.9 1045
28 1065
28.1 1121
28.2 1251
28.3 1409
28.4 1125
28.5 1060
28.6 1055
28.7 1074
28.8 1355
28.9 1618
29 1437
29.1 1534
29.2 1081
29.3 950
29.4 997
29.5 960
29.6 973
29.7 976
29.8 1029
29.9 1083
30 959

File: 5-14.ASC
3 1995
3.1 1478
3.2 1446
3.3 1445
3.4 1353
3.5 1310
3.6 1208
3.7 1196
3.8 1119
3.9 1052
4 1070
4.1 962
4.2 965
4.3 948
4.4 949
4.5 929
4.6 861
4.7 886
4.8 826
4.9 836
5 904
5.1 875
5.2 888
5.3 864
5.4 871
5.5 1032
5.6 1079
5.7 1292
5.8 2290
5.9 921
6 902
6.1 896
6.2 845
6.3 884
6.4 988
6.5 1019
6.6 1281
6.7 1824
6.8 904
6.9 831
7 888
7.1 867
7.2 881
7.3 856
7.4 944
7.5 968
7.6 893
7.7 893
7.8 869
7.9 878
8 904
8.1 886
8.2 906
8.3 894
8.4 894
8.5 927
8.6 971
8.7 902
8.8 967
8.9 923
9 1005
9.1 1009
9.2 1074
9.3 1272
9.4 1971
9.5 971
9.6 948
9.7 900
9.8 936
9.9 931
10 942
10.1 962
10.2 991
10.3 954
10.4 973
10.5 976
10.6 1051
10.7 1080
10.8 1199
10.9 1291
11 2196
11.1 1165
11.2 1068
11.3 1165
11.4 1307
11.5 1833
11.6 1150
11.7 1068
11.8 1044
11.9 1122
12 1092
12.1 1131
12.2 1114
12.3 1146
12.4 1145
12.5 1165
12.6 1167
12.7 1159
12.8 1191
12.9 1214
13 1266
13.1 1271
13.2 1300
13.3 1446
13.4 1274
13.5 1180
13.6 1253
13.7 1296
13.8 1261
13.9 1306
14 1317
14.1 1374
14.2 1420
14.3 1379
14.4 1531
14.5 1450
14.6 1401
14.7 1475
14.8 1518
14.9 1461
15 1534
15.1 1497
15.2 1561
15.3 1502
15.4 1516
15.5 1551
15.6 1636
15.7 1724
15.8 1697
15.9 1709
16 1734
16.1 1736
16.2 1717
16.3 1796
16.4 1877
16.5 1792
16.6 1817
16.7 1893
16.8 1975
16.9 1958
17 2054
17.1 2173
17.2 2289
17.3 2204
17.4 1982
17.5 2185
17.6 2194
17.7 2181
17.8 2220
17.9 2221
18 2275
18.1 2325
18.2 2372
18.3 2391
18.4 2439
18.5 2420
18.6 2433
18.7 2504
18.8 2567
18.9 2596
19 2663
19.1 2641
19.2 2752
19.3 2739
19.4 2784
19.5 2940
19.6 3367
19.7 3295
19.8 3077
19.9 4053
20 3078
20.1 3019
20.2 2915
20.3 2908
20.4 2861
20.5 2877
20.6 2962
20.7 2842
20.8 2960
20.9 2908
21 3031
21.1 3013
21.2 2951
21.3 2997
21.4 2948
21.5 3029
21.6 2952
21.7 3125
21.8 3227
21.9 2794
22 2826
22.1 2754
22.2 2822
22.3 2751
22.4 2796
22.5 2694
22.6 2743
22.7 2688
22.8 2662
22.9 2700
23 2841
23.1 2640
23.2 2591
23.3 2547
23.4 2504
23.5 2589
23.6 2675
23.7 3458
23.8 2995
23.9 2516
24 2541
24.1 2370
24.2 2398
24.3 2329
24.4 2272
24.5 2239
24.6 2302
24.7 2276
24.8 2552
24.9 2941
25 2281
25.1 2260
25.2 2200
25.3 2237
25.4 2319
25.5 2785
25.6 2818
25.7 2063
25.8 2144
25.9 2052
26 1984
26.1 2006
26.2 1938
26.3 1912
26.4 1957
26.5 2063
26.6 2580
26.7 2154
26.8 1950
26.9 1908
27 1881
27.1 1771
27.2 1811
27.3 1865
27.4 2220
27.5 2466
27.6 1755
27.7 1752
27.8 1757
27.9 1703
28 1709
28.1 1764
28.2 1807
28.3 1957
28.4 1692
28.5 1659
28.6 1643
28.7 1703
28.8 1988
28.9 2113
29 1986
29.1 1999
29.2 1640
29.3 1533
29.4 1503
29.5 1487
29.6 1465
29.7 1471
29.8 1460
29.9 1423
30 1504

File: 5-15.ASC
3 2157
3.1 1733
3.2 1542
3.3 1519
3.4 1542
3.5 1453
3.6 1417
3.7 1369
3.8 1287
3.9 1226
4 1227
4.1 1181
4.2 1118
4.3 1075
4.4 1110
4.5 1031
4.6 1040
4.7 1002
4.8 1052
4.9 1011
5 1019
5.1 973
5.2 988
5.3 964
5.4 970
5.5 987
5.6 977
5.7 1047
5.8 1031
5.9 930
6 990
6.1 992
6.2 1009
6.3 985
6.4 986
6.5 1004
6.6 954
6.7 1026
6.8 1007
6.9 978
7 941
7.1 978
7.2 973
7.3 1016
7.4 1042
7.5 980
7.6 1016
7.7 990
7.8 987
7.9 972
8 945
8.1 993
8.2 993
8.3 1005
8.4 1018
8.5 963
8.6 981
8.7 969
8.8 1001
8.9 931
9 983
9.1 1010
9.2 954
9.3 976
9.4 994
9.5 1025
9.6 933
9.7 992
9.8 984
9.9 960
10 926
10.1 1007
10.2 973
10.3 1016
10.4 950
10.5 956
10.6 986
10.7 1025
10.8 914
10.9 957
11 946
11.1 1007
11.2 995
11.3 1008
11.4 1016
11.5 1002
11.6 1061
11.7 941
11.8 971
11.9 1007
12 1077
12.1 1029
12.2 1047
12.3 1004
12.4 1030
12.5 1051
12.6 1034
12.7 1088
12.8 1017
12.9 1055
13 1094
13.1 1071
13.2 1146
13.3 1206
13.4 1113
13.5 1090
13.6 1129
13.7 1134
13.8 1133
13.9 1110
14 1129
14.1 1066
14.2 1111
14.3 1172
14.4 1177
14.5 1127
14.6 1135
14.7 1125
14.8 1224
14.9 1184
15 1242
15.1 1289
15.2 1274
15.3 1299
15.4 1287
15.5 1330
15.6 1345
15.7 1292
15.8 1330
15.9 1343
16 1370
16.1 1372
16.2 1467
16.3 1511
16.4 1509
16.5 1508
16.6 1599
16.7 1713
16.8 2185
16.9 3577
17 7559
17.1 2757
17.2 1769
17.3 1722
17.4 1778
17.5 1745
17.6 1799
17.7 1803
17.8 1799
17.9 1843
18 1834
18.1 1921
18.2 1902
18.3 1975
18.4 2002
18.5 1888
18.6 2024
18.7 2001
18.8 2106
18.9 2066
19 2108
19.1 2141
19.2 2233
19.3 2168
19.4 2239
19.5 2235
19.6 2229
19.7 2295
19.8 2314
19.9 2355
20 2362
20.1 2351
20.2 2377
20.3 2312
20.4 2341
20.5 2421
20.6 2388
20.7 2417
20.8 2442
20.9 2481
21 2449
21.1 2506
21.2 2476
21.3 2471
21.4 2414
21.5 2480
21.6 2448
21.7 2425
21.8 2427
21.9 2348
22 2419
22.1 2476
22.2 2402
22.3 2356
22.4 2448
22.5 2285
22.6 2409
22.7 2346
22.8 2359
22.9 2282
23 2320
23.1 2307
23.2 2181
23.3 2288
23.4 2316
23.5 2260
23.6 2176
23.7 2129
23.8 2190
23.9 2167
24 2143
24.1 2102
24.2 2168
24.3 2290
24.4 2576
24.5 3094
24.6 2900
24.7 2313
24.8 2180
24.9 2054
25 2082
25.1 2355
25.2 3385
25.3 5046
25.4 2850
25.5 1973
25.6 1806
25.7 1887
25.8 1804
25.9 1784
26 1824
26.1 1774
26.2 1700
26.3 1730
26.4 1770
26.5 1821
26.6 2076
26.7 2319
26.8 3038
26.9 4075
27 2778
27.1 1883
27.2 1701
27.3 1686
27.4 1550
27.5 1538
27.6 1580
27.7 1531
27.8 1552
27.9 1572
28 1554
28.1 1657
28.2 1650
28.3 1524
28.4 1395
28.5 1489
28.6 1525
28.7 1470
28.8 1397
28.9 1423
29 1470
29.1 1683
29.2 1819
29.3 1730
29.4 1526
29.5 1370
29.6 1375
29.7 1277
29.8 1321
29.9 1282
30 1294

File: 5-16.ASC
3 1983
3.1 1622
3.2 1483
3.3 1386
3.4 1288
3.5 1260
3.6 1222
3.7 1166
3.8 1089
3.9 1067
4 1038
4.1 953
4.2 878
4.3 906
4.4 845
4.5 863
4.6 764
4.7 799
4.8 756
4.9 808
5 766
5.1 734
5.2 719
5.3 702
5.4 681
5.5 721
5.6 699
5.7 660
5.8 709
5.9 693
6 693
6.1 682
6.2 709
6.3 672
6.4 693
6.5 659
6.6 723
6.7 709
6.8 737
6.9 747
7 704
7.1 702
7.2 750
7.3 722
7.4 710
7.5 770
7.6 744
7.7 754
7.8 754
7.9 837
8 802
8.1 841
8.2 822
8.3 901
8.4 1051
8.5 1273
8.6 1646
8.7 2493
8.8 4573
8.9 5386
9 5855
9.1 1291
9.2 1034
9.3 987
9.4 1026
9.5 1064
9.6 1283
9.7 1727
9.8 2708
9.9 6513
10 2019
10.1 1025
10.2 885
10.3 899
10.4 908
10.5 845
10.6 877
10.7 798
10.8 782
10.9 814
11 768
11.1 838
11.2 819
11.3 788
11.4 826
11.5 790
11.6 824
11.7 819
11.8 789
11.9 793
12 803
12.1 904
12.2 832
12.3 938
12.4 1079
12.5 1296
12.6 2101
12.7 1261
12.8 993
12.9 949
13 987
13.1 1063
13.2 1395
13.3 2169
13.4 3488
13.5 1152
13.6 940
13.7 932
13.8 973
13.9 860
14 922
14.1 963
14.2 941
14.3 1011
14.4 899
14.5 990
14.6 982
14.7 988
14.8 1013
14.9 974
15 996
15.1 1057
15.2 1022
15.3 1079
15.4 1057
15.5 1132
15.6 1078
15.7 1097
15.8 1069
15.9 1132
16 1138
16.1 1106
16.2 1153
16.3 1239
16.4 1211
16.5 1217
16.6 1277
16.7 1287
16.8 1478
16.9 1810
17 3230
17.1 1738
17.2 1328
17.3 1288
17.4 1367
17.5 1394
17.6 1443
17.7 1582
17.8 1554
17.9 1442
18 1589
18.1 1521
18.2 1607
18.3 1659
18.4 1663
18.5 1544
18.6 1580
18.7 1525
18.8 1531
18.9 1628
19 1655
19.1 1648
19.2 1659
19.3 1634
19.4 1689
19.5 1731
19.6 1796
19.7 1881
19.8 2471
19.9 2530
20 2373
20.1 2573
20.2 1963
20.3 1955
20.4 1909
20.5 1830
20.6 1878
20.7 1794
20.8 1876
20.9 1919
21 1854
21.1 1900
21.2 1881
21.3 1894
21.4 1818
21.5 1869
21.6 1899
21.7 1842
21.8 1813
21.9 1767
22 1817
22.1 1882
22.2 1921
22.3 2110
22.4 2016
22.5 1743
22.6 1783
22.7 1802
22.8 1714
22.9 1684
23 1761
23.1 1677
23.2 1664
23.3 1701
23.4 1579
23.5 1692
23.6 1592
23.7 1667
23.8 1632
23.9 1726
24 2123
24.1 2192
24.2 1871
24.3 1850
24.4 1844
24.5 2007
24.6 1929
24.7 1629
24.8 1556
24.9 1558
25 1766
25.1 2531
25.2 2936
25.3 4032
25.4 3123
25.5 1887
25.6 1689
25.7 1533
25.8 1443
25.9 1440
26 1454
26.1 1290
26.2 1377
26.3 1338
26.4 1350
26.5 1509
26.6 2013
26.7 2500
26.8 2503
26.9 2796
27 2596
27.1 3296
27.2 1890
27.3 1477
27.4 1412
27.5 1458
27.6 1353
27.7 1353
27.8 1286
27.9 1273
28 1211
28.1 1350
28.2 1392
28.3 1247
28.4 1319
28.5 1726
28.6 1782
28.7 1292
28.8 1172
28.9 1181
29 1163
29.1 1244
29.2 1291
29.3 1239
29.4 1118
29.5 1134
29.6 1102
29.7 1158
29.8 1298
29.9 2422
30 2199

File: 5-20.ASC
3 2166
3.1 1678
3.2 1550
3.3 1453
3.4 1354
3.5 1374
3.6 1277
3.7 1247
3.8 1171
3.9 1082
4 1033
4.1 1051
4.2 979
4.3 911
4.4 825
4.5 823
4.6 824
4.7 749
4.8 793
4.9 735
5 751
5.1 741
5.2 671
5.3 702
5.4 709
5.5 726
5.6 726
5.7 715
5.8 718
5.9 705
6 702
6.1 743
6.2 772
6.3 720
6.4 692
6.5 740
6.6 729
6.7 729
6.8 738
6.9 740
7 733
7.1 743
7.2 770
7.3 732
7.4 732
7.5 762
7.6 765
7.7 729
7.8 686
7.9 662
8 687
8.1 662
8.2 631
8.3 671
8.4 602
8.5 666
8.6 611
8.7 605
8.8 595
8.9 611
9 596
9.1 568
9.2 607
9.3 550
9.4 588
9.5 553
9.6 556
9.7 552
9.8 596
9.9 560
10 524
10.1 521
10.2 499
10.3 518
10.4 554
10.5 526
10.6 516
10.7 497
10.8 506
10.9 515
11 490
11.1 502
11.2 556
11.3 511
11.4 519
11.5 506
11.6 506
11.7 521
11.8 558
11.9 525
12 535
12.1 533
12.2 526
12.3 571
12.4 485
12.5 513
12.6 583
12.7 528
12.8 564
12.9 542
13 509
13.1 532
13.2 541
13.3 582
13.4 579
13.5 545
13.6 533
13.7 587
13.8 576
13.9 579
14 542
14.1 568
14.2 548
14.3 534
14.4 553
14.5 581
14.6 582
14.7 580
14.8 568
14.9 577
15 565
15.1 637
15.2 628
15.3 631
15.4 622
15.5 644
15.6 621
15.7 647
15.8 623
15.9 616
16 701
16.1 678
16.2 709
16.3 704
16.4 710
16.5 746
16.6 783
16.7 764
16.8 942
16.9 1199
17 2114
17.1 2337
17.2 862
17.3 825
17.4 858
17.5 850
17.6 860
17.7 825
17.8 839
17.9 879
18 867
18.1 931
18.2 824
18.3 881
18.4 931
18.5 920
18.6 909
18.7 969
18.8 1001
18.9 1036
19 971
19.1 1012
19.2 1048
19.3 1048
19.4 1054
19.5 1000
19.6 1040
19.7 1092
19.8 1061
19.9 1118
20 1075
20.1 1099
20.2 1122
20.3 1128
20.4 1153
20.5 1177
20.6 1194
20.7 1176
20.8 1151
20.9 1227
21 1235
21.1 1255
21.2 1232
21.3 1230
21.4 1218
21.5 1145
21.6 1300
21.7 1275
21.8 1304
21.9 1329
22 1256
22.1 1256
22.2 1336
22.3 1353
22.4 1271
22.5 1320
22.6 1348
22.7 1279
22.8 1334
22.9 1282
23 1296
23.1 1283
23.2 1317
23.3 1297
23.4 1419
23.5 1323
23.6 1323
23.7 1313
23.8 1344
23.9 1328
24 1363
24.1 1322
24.2 1353
24.3 1444
24.4 1489
24.5 1698
24.6 1783
24.7 1579
24.8 1462
24.9 1468
25 1371
25.1 1481
25.2 1703
25.3 2366
25.4 2396
25.5 1496
25.6 1344
25.7 1334
25.8 1318
25.9 1320
26 1314
26.1 1310
26.2 1378
26.3 1259
26.4 1319
26.5 1321
26.6 1423
26.7 1692
26.8 1765
26.9 2221
27 1993
27.1 1532
27.2 1396
27.3 1291
27.4 1322
27.5 1212
27.6 1247
27.7 1269
27.8 1267
27.9 1252
28 1287
28.1 1278
28.2 1296
28.3 1187
28.4 1258
28.5 1189
28.6 1239
28.7 1236
28.8 1173
28.9 1206
29 1235
29.1 1264
29.2 1346
29.3 1386
29.4 1290
29.5 1206
29.6 1067
29.7 1148
29.8 1157
29.9 1156
30 1073

File: 6-2.ASC
3 1653
3.06 1307
3.12 1093
3.18 1109
3.24 985
3.3 1033
3.36 959
3.42 954
3.48 905
3.54 902
3.6 834
3.66 863
3.72 828
3.78 806
3.84 772
3.9 767
3.96 765
4.02 723
4.08 719
4.14 658
4.2 722
4.26 684
4.32 700
4.38 635
4.44 647
4.5 599
4.56 582
4.62 626
4.68 588
4.74 625
4.8 581
4.86 589
4.92 598
4.98 568
5.04 549
5.1 590
5.16 599
5.22 563
5.28 563
5.34 606
5.4 637
5.46 607
5.52 663
5.58 736
5.64 740
5.7 829
5.76 979
5.82 1156
5.88 1351
5.94 1661
6 1948
6.06 1088
6.12 649
6.18 673
6.24 585
6.3 583
6.36 597
6.42 589
6.48 615
6.54 661
6.6 734
6.66 798
6.72 889
6.78 1032
6.84 1248
6.9 1307
6.96 669
7.02 569
7.08 545
7.14 528
7.2 548
7.26 533
7.32 559
7.38 579
7.44 536
7.5 571
7.56 572
7.62 635
7.68 619
7.74 553
7.8 540
7.86 567
7.92 507
7.98 536
8.04 578
8.1 531
8.16 474
8.22 539
8.28 556
8.34 533
8.4 524
8.46 560
8.52 525
8.58 512
8.64 520
8.7 578
8.76 598
8.82 537
8.88 575
8.94 616
9 512
9.06 561
9.12 538
9.18 495
9.24 610
9.3 589
9.36 621
9.42 702
9.48 741
9.54 927
9.6 1051
9.66 926
9.72 578
9.78 515
9.84 548
9.9 533
9.96 527
10.02 515
10.08 515
10.14 555
10.2 525
10.26 530
10.32 529
10.38 499
10.44 520
10.5 511
10.56 530
10.62 565
10.68 476
10.74 567
10.8 520
10.86 547
10.92 597
10.98 605
11.04 708
11.1 766
11.16 903
11.22 1136
11.28 758
11.34 545
11.4 556
11.46 563
11.52 611
11.58 634
11.64 734
11.7 790
11.76 688
11.82 523
11.88 532
11.94 561
12 537
12.06 566
12.12 566
12.18 569
12.24 535
12.3 556
12.36 570
12.42 550
12.48 533
12.54 594
12.6 540
12.66 506
12.72 579
12.78 544
12.84 528
12.9 563
12.96 543
13.02 588
13.08 573
13.14 542
13.2 579
13.26 600
13.32 588
13.38 622
13.44 621
13.5 649
13.56 600
13.62 601
13.68 574
13.74 596
13.8 576
13.86 639
13.92 591
13.98 550
14.04 557
14.1 608
14.16 620
14.22 597
14.28 574
14.34 605
14.4 641
14.46 638
14.52 608
14.58 655
14.64 721
14.7 692
14.76 606
14.82 670
14.88 661
14.94 654
15 697
15.06 687
15.12 681
15.18 640
15.24 625
15.3 695
15.36 652
15.42 702
15.48 664
15.54 667
15.6 681
15.66 652
15.72 676
15.78 697
15.84 722
15.9 763
15.96 728
16.02 679
16.08 699
16.14 704
16.2 721
16.26 759
16.32 698
16.38 764
16.44 759
16.5 770
16.56 763
16.62 772
16.68 798
16.74 807
16.8 854
16.86 831
16.92 832
16.98 864
17.04 866
17.1 846
17.16 913
17.22 827
17.28 868
17.34 968
17.4 961
17.46 969
17.52 925
17.58 876
17.64 920
17.7 919
17.76 930
17.82 986
17.88 987
17.94 995
18 975
18.06 1000
18.12 1004
18.18 973
18.24 1018
18.3 1026
18.36 1079
18.42 994
18.48 1102
18.54 1049
18.6 1074
18.66 1080
18.72 1115
18.78 1130
18.84 1182
18.9 1137
18.96 1074
19.02 1127
19.08 1183
19.14 1153
19.2 1184
19.26 1224
19.32 1198
19.38 1270
19.44 1202
19.5 1219
19.56 1257
19.62 1285
19.68 1379
19.74 1420
19.8 1507
19.86 1677
19.92 1479
19.98 1473
20 1560

File: 6-3.ASC
3 2236
3.06 1842
3.12 1640
3.18 1551
3.24 1523
3.3 1551
3.36 1467
3.42 1411
3.48 1371
3.54 1321
3.6 1343
3.66 1242
3.72 1186
3.78 1164
3.84 1150
3.9 1150
3.96 1118
4.02 1116
4.08 1074
4.14 1073
4.2 1073
4.26 1024
4.32 990
4.38 1019
4.44 958
4.5 986
4.56 931
4.62 926
4.68 935
4.74 1018
4.8 898
4.86 987
4.92 1010
4.98 1030
5.04 1093
5.1 1122
5.16 1165
5.22 1264
5.28 1282
5.34 1464
5.4 1598
5.46 1851
5.52 2104
5.58 2615
5.64 3343
5.7 4614
5.76 8124
5.82 3532
5.88 1216
5.94 1189
6 1114
6.06 1103
6.12 1066
6.18 1170
6.24 1201
6.3 1289
6.36 1483
6.42 1692
6.48 1997
6.54 2361
6.6 3411
6.66 5212
6.72 1519
6.78 1036
6.84 1001
6.9 1022
6.96 959
7.02 1043
7.08 1038
7.14 1071
7.2 1146
7.26 1243
7.32 1426
7.38 1800
7.44 2702
7.5 1277
7.56 970
7.62 894
7.68 909
7.74 903
7.8 898
7.86 908
7.92 958
7.98 891
8.04 928
8.1 876
8.16 920
8.22 962
8.28 911
8.34 1012
8.4 1050
8.46 1141
8.52 1326
8.58 1593
8.64 1078
8.7 860
8.76 868
8.82 921
8.88 965
8.94 942
9 1045
9.06 1128
9.12 1223
9.18 1363
9.24 1673
9.3 2117
9.36 3722
9.42 2317
9.48 979
9.54 899
9.6 937
9.66 982
9.72 891
9.78 844
9.84 917
9.9 962
9.96 895
10.02 889
10.08 891
10.14 897
10.2 904
10.26 885
10.32 933
10.38 929
10.44 920
10.5 928
10.56 971
10.62 992
10.68 1026
10.74 1113
10.8 1311
10.86 1591
10.92 2166
10.98 3606
11.04 2013
11.1 1039
11.16 1005
11.22 1046
11.28 1116
11.34 1208
11.4 1461
11.46 2207
11.52 1580
11.58 983
11.64 938
11.7 973
11.76 971
11.82 949
11.88 967
11.94 1021
12 1027
12.06 1160
12.12 1191
12.18 1017
12.24 924
12.3 977
12.36 1004
12.42 979
12.48 907
12.54 978
12.6 964
12.66 939
12.72 1006
12.78 935
12.84 961
12.9 975
12.96 945
13.02 994
13.08 1076
13.14 1134
13.2 1289
13.26 1403
13.32 1064
13.38 976
13.44 1032
13.5 1004
13.56 995
13.62 1019
13.68 1022
13.74 1028
13.8 1006
13.86 1014
13.92 1075
13.98 1086
14.04 1068
14.1 1088
14.16 1158
14.22 1232
14.28 1174
14.34 1145
14.4 1411
14.46 1480
14.52 1144
14.58 1139
14.64 1135
14.7 1220
14.76 1150
14.82 1269
14.88 1182
14.94 1166
15 1183
15.06 1222
15.12 1178
15.18 1161
15.24 1192
15.3 1197
15.36 1246
15.42 1209
15.48 1244
15.54 1196
15.6 1260
15.66 1246
15.72 1249
15.78 1294
15.84 1296
15.9 1275
15.96 1254
16.02 1350
16.08 1338
16.14 1346
16.2 1349
16.26 1436
16.32 1446
16.38 1410
16.44 1473
16.5 1475
16.56 1456
16.62 1452
16.68 1499
16.74 1492
16.8 1499
16.86 1523
16.92 1580
16.98 1553
17.04 1665
17.1 1757
17.16 1811
17.22 2084
17.28 1677
17.34 1683
17.4 1658
17.46 1619
17.52 1712
17.58 1672
17.64 1724
17.7 1726
17.76 1706
17.82 1742
17.88 1676
17.94 1782
18 1766
18.06 1744
18.12 1784
18.18 1820
18.24 1842
18.3 1841
18.36 1866
18.42 1811
18.48 1898
18.54 1923
18.6 1874
18.66 1952
18.72 1939
18.78 1971
18.84 2020
18.9 1975
18.96 2105
19.02 2010
19.08 2097
19.14 2113
19.2 2011
19.26 2150
19.32 2002
19.38 2147
19.44 2235
19.5 2318
19.56 2735
19.62 3308
19.68 2607
19.74 2440
19.8 2538
19.86 3415
19.92 3633
19.98 2533
20 2455

File: 6-5.ASC
3 2473
3.06 2104
3.12 1728
3.18 1707
3.24 1702
3.3 1648
3.36 1562
3.42 1474
3.48 1462
3.54 1423
3.6 1404
3.66 1448
3.72 1304
3.78 1318
3.84 1259
3.9 1257
3.96 1247
4.02 1237
4.08 1225
4.14 1121
4.2 1217
4.26 1125
4.32 1171
4.38 1098
4.44 1131
4.5 1156
4.56 1064
4.62 1054
4.68 1113
4.74 1025
4.8 1056
4.86 988
4.92 1018
4.98 1028
5.04 1035
5.1 1018
5.16 1038
5.22 1036
5.28 1018
5.34 1037
5.4 1030
5.46 1001
5.52 1023
5.58 972
5.64 989
5.7 1081
5.76 1108
5.82 1013
5.88 1077
5.94 1012
6 1016
6.06 1087
6.12 1048
6.18 1009
6.24 1090
6.3 997
6.36 989
6.42 1062
6.48 1025
6.54 1024
6.6 1015
6.66 971
6.72 1069
6.78 1051
6.84 981
6.9 1031
6.96 1031
7.02 1008
7.08 1027
7.14 1002
7.2 998
7.26 1069
7.32 1013
7.38 1034
7.44 1028
7.5 984
7.56 1038
7.62 1037
7.68 1016
7.74 1042
7.8 1048
7.86 1029
7.92 994
7.98 979
8.04 988
8.1 1023
8.16 1013
8.22 1026
8.28 988
8.34 974
8.4 995
8.46 982
8.52 923
8.58 1009
8.64 1011
8.7 943
8.76 1040
8.82 993
8.88 1024
8.94 983
9 960
9.06 945
9.12 986
9.18 994
9.24 1054
9.3 954
9.36 1040
9.42 997
9.48 947
9.54 975
9.6 980
9.66 982
9.72 935
9.78 1055
9.84 985
9.9 955
9.96 985
10.02 1024
10.08 948
10.14 968
10.2 975
10.26 904
10.32 924
10.38 961
10.44 962
10.5 949
10.56 904
10.62 951
10.68 977
10.74 959
10.8 911
10.86 932
10.92 981
10.98 957
11.04 1027
11.1 987
11.16 911
11.22 996
11.28 959
11.34 954
11.4 966
11.46 965
11.52 987
11.58 1032
11.64 958
11.7 955
11.76 1023
11.82 1007
11.88 996
11.94 1016
12 982
12.06 997
12.12 1013
12.18 946
12.24 932
12.3 983
12.36 979
12.42 965
12.48 1001
12.54 1006
12.6 986
12.66 1011
12.72 958
12.78 1013
12.84 961
12.9 1006
12.96 1011
13.02 1029
13.08 1054
13.14 1055
13.2 1052
13.26 1047
13.32 1063
13.38 1034
13.44 1144
13.5 1070
13.56 1042
13.62 1071
13.68 1128
13.74 1060
13.8 1084
13.86 1061
13.92 1111
13.98 1099
14.04 1115
14.1 1108
14.16 1139
14.22 1092
14.28 1110
14.34 1099
14.4 1193
14.46 1069
14.52 1124
14.58 1151
14.64 1144
14.7 1220
14.76 1208
14.82 1209
14.88 1183
14.94 1218
15 1236
15.06 1194
15.12 1256
15.18 1260
15.24 1201
15.3 1311
15.36 1275
15.42 1187
15.48 1182
15.54 1215
15.6 1294
15.66 1336
15.72 1294
15.78 1295
15.84 1268
15.9 1342
15.96 1386
16.02 1369
16.08 1360
16.14 1393
16.2 1435
16.26 1373
16.32 1321
16.38 1471
16.44 1433
16.5 1449
16.56 1495
16.62 1530
16.68 1543
16.74 1645
16.8 1836
16.86 2127
16.92 2929
16.98 4151
17.04 3486
17.1 1981
17.16 1681
17.22 1620
17.28 1558
17.34 1595
17.4 1644
17.46 1600
17.52 1671
17.58 1685
17.64 1721
17.7 1724
17.76 1708
17.82 1733
17.88 1735
17.94 1743
18 1753
18.06 1706
18.12 1868
18.18 1773
18.24 1809
18.3 1850
18.36 1812
18.42 1840
18.48 1862
18.54 1919
18.6 1954
18.66 1944
18.72 1929
18.78 1931
18.84 1996
18.9 1944
18.96 1967
19.02 2047
19.08 1959
19.14 2043
19.2 2079
19.26 2096
19.32 2044
19.38 2064
19.44 2115
19.5 1960
19.56 2133
19.62 2098
19.68 2079
19.74 2208
19.8 2122
19.86 2286
19.92 2257
19.98 2193
20 2179