Folder: CPC-code/xrd-UiO-67/pxrddata (part 10)

File: 35-12.ASC
3 2401
3.06 1947
3.12 1787
3.18 1645
3.24 1677
3.3 1602
3.36 1503
3.42 1482
3.48 1443
3.54 1353
3.6 1371
3.66 1251
3.72 1275
3.78 1232
3.84 1219
3.9 1261
3.96 1165
4.02 1230
4.08 1090
4.14 1093
4.2 1196
4.26 1083
4.32 1018
4.38 1095
4.44 1105
4.5 1040
4.56 1099
4.62 1061
4.68 1056
4.74 1039
4.8 1023
4.86 1122
4.92 1021
4.98 1071
5.04 1061
5.1 1085
5.16 1142
5.22 1183
5.28 1281
5.34 1440
5.4 1642
5.46 1610
5.52 1390
5.58 1115
5.64 997
5.7 935
5.76 883
5.82 846
5.88 895
5.94 825
6 835
6.06 788
6.12 810
6.18 787
6.24 787
6.3 686
6.36 744
6.42 760
6.48 739
6.54 732
6.6 748
6.66 762
6.72 773
6.78 686
6.84 709
6.9 691
6.96 677
7.02 712
7.08 688
7.14 646
7.2 724
7.26 686
7.32 692
7.38 629
7.44 644
7.5 655
7.56 627
7.62 675
7.68 663
7.74 680
7.8 675
7.86 666
7.92 639
7.98 625
8.04 637
8.1 643
8.16 645
8.22 627
8.28 660
8.34 609
8.4 609
8.46 649
8.52 630
8.58 638
8.64 653
8.7 595
8.76 626
8.82 576
8.88 673
8.94 652
9 594
9.06 633
9.12 640
9.18 687
9.24 750
9.3 820
9.36 891
9.42 795
9.48 741
9.54 686
9.6 622
9.66 651
9.72 610
9.78 620
9.84 639
9.9 542
9.96 611
10.02 582
10.08 575
10.14 598
10.2 593
10.26 614
10.32 609
10.38 585
10.44 592
10.5 573
10.56 601
10.62 607
10.68 626
10.74 658
10.8 684
10.86 647
10.92 616
10.98 594
11.04 575
11.1 564
11.16 569
11.22 517
11.28 576
11.34 569
11.4 576
11.46 566
11.52 593
11.58 551
11.64 571
11.7 585
11.76 540
11.82 541
11.88 546
11.94 523
12 568
12.06 575
12.12 587
12.18 585
12.24 534
12.3 607
12.36 614
12.42 600
12.48 567
12.54 589
12.6 558
12.66 564
12.72 577
12.78 568
12.84 616
12.9 591
12.96 609
13.02 564
13.08 596
13.14 596
13.2 589
13.26 618
13.32 604
13.38 603
13.44 594
13.5 616
13.56 586
13.62 603
13.68 579
13.74 624
13.8 577
13.86 640
13.92 615
13.98 647
14.04 635
14.1 610
14.16 616
14.22 631
14.28 591
14.34 644
14.4 655
14.46 703
14.52 684
14.58 638
14.64 677
14.7 671
14.76 688
14.82 704
14.88 639
14.94 639
15 692
15.06 648
15.12 646
15.18 698
15.24 673
15.3 698
15.36 723
15.42 648
15.48 730
15.54 722
15.6 737
15.66 688
15.72 685
15.78 737
15.84 708
15.9 731
15.96 748
16.02 718
16.08 701
16.14 751
16.2 808
16.26 742
16.32 756
16.38 831
16.44 767
16.5 827
16.56 809
16.62 796
16.68 831
16.74 877
16.8 858
16.86 1010
16.92 1199
16.98 1569
17.04 1706
17.1 1242
17.16 1002
17.22 906
17.28 899
17.34 878
17.4 886
17.46 894
17.52 899
17.58 929
17.64 946
17.7 935
17.76 910
17.82 896
17.88 921
17.94 1012
18 944
18.06 932
18.12 969
18.18 963
18.24 937
18.3 963
18.36 1039
18.42 1061
18.48 989
18.54 1050
18.6 1029
18.66 1013
18.72 1033
18.78 1038
18.84 1087
18.9 1038
18.96 1094
19.02 1078
19.08 1103
19.14 1084
19.2 1074
19.26 1111
19.32 1122
19.38 1122
19.44 1265
19.5 1184
19.56 1261
19.62 1189
19.68 1188
19.74 1227
19.8 1254
19.86 1152
19.92 1187
19.98 1213
20 1236

File: 35-13.ASC
3 2647
3.06 2204
3.12 2041
3.18 1944
3.24 1820
3.3 1810
3.36 1725
3.42 1612
3.48 1596
3.54 1509
3.6 1458
3.66 1310
3.72 1308
3.78 1293
3.84 1205
3.9 1238
3.96 1154
4.02 1125
4.08 1114
4.14 1027
4.2 1033
4.26 1065
4.32 962
4.38 934
4.44 958
4.5 905
4.56 886
4.62 826
4.68 844
4.74 790
4.8 796
4.86 791
4.92 753
4.98 729
5.04 757
5.1 783
5.16 707
5.22 706
5.28 715
5.34 677
5.4 718
5.46 692
5.52 628
5.58 667
5.64 681
5.7 687
5.76 669
5.82 668
5.88 644
5.94 620
6 628
6.06 594
6.12 660
6.18 590
6.24 616
6.3 600
6.36 610
6.42 585
6.48 610
6.54 639
6.6 635
6.66 610
6.72 583
6.78 604
6.84 632
6.9 653
6.96 606
7.02 647
7.08 593
7.14 572
7.2 612
7.26 604
7.32 595
7.38 604
7.44 616
7.5 633
7.56 603
7.62 632
7.68 651
7.74 550
7.8 592
7.86 583
7.92 634
7.98 590
8.04 577
8.1 583
8.16 617
8.22 561
8.28 539
8.34 630
8.4 644
8.46 615
8.52 616
8.58 644
8.64 676
8.7 757
8.76 806
8.82 955
8.88 1164
8.94 1433
9 1406
9.06 1244
9.12 1029
9.18 860
9.24 763
9.3 728
9.36 683
9.42 689
9.48 638
9.54 666
9.6 678
9.66 698
9.72 743
9.78 760
9.84 861
9.9 1090
9.96 1137
10.02 1065
10.08 871
10.14 724
10.2 663
10.26 613
10.32 629
10.38 588
10.44 573
10.5 588
10.56 575
10.62 604
10.68 589
10.74 592
10.8 533
10.86 561
10.92 581
10.98 578
11.04 575
11.1 555
11.16 561
11.22 551
11.28 558
11.34 613
11.4 589
11.46 607
11.52 526
11.58 534
11.64 546
11.7 562
11.76 585
11.82 551
11.88 556
11.94 551
12 555
12.06 619
12.12 569
12.18 543
12.24 594
12.3 618
12.36 635
12.42 619
12.48 602
12.54 673
12.6 701
12.66 714
12.72 728
12.78 732
12.84 630
12.9 692
12.96 585
13.02 642
13.08 578
13.14 685
13.2 697
13.26 658
13.32 727
13.38 798
13.44 752
13.5 745
13.56 682
13.62 634
13.68 641
13.74 685
13.8 609
13.86 585
13.92 612
13.98 642
14.04 626
14.1 639
14.16 677
14.22 646
14.28 679
14.34 650
14.4 669
14.46 695
14.52 656
14.58 695
14.64 668
14.7 682
14.76 666
14.82 732
14.88 670
14.94 699
15 747
15.06 717
15.12 701
15.18 772
15.24 733
15.3 704
15.36 752
15.42 704
15.48 767
15.54 747
15.6 768
15.66 751
15.72 774
15.78 768
15.84 729
15.9 739
15.96 774
16.02 711
16.08 758
16.14 762
16.2 800
16.26 862
16.32 757
16.38 818
16.44 843
16.5 842
16.56 853
16.62 878
16.68 886
16.74 942
16.8 959
16.86 1113
16.92 1332
16.98 1621
17.04 1553
17.1 1377
17.16 1219
17.22 966
17.28 914
17.34 979
17.4 905
17.46 970
17.52 900
17.58 978
17.64 979
17.7 1029
17.76 1044
17.82 1058
17.88 1050
17.94 1007
18 1059
18.06 1071
18.12 1015
18.18 1024
18.24 1122
18.3 1122
18.36 1097
18.42 1078
18.48 1189
18.54 1140
18.6 1139
18.66 1179
18.72 1121
18.78 1238
18.84 1136
18.9 1219
18.96 1200
19.02 1240
19.08 1157
19.14 1211
19.2 1199
19.26 1244
19.32 1239
19.38 1234
19.44 1239
19.5 1287
19.56 1311
19.62 1263
19.68 1352
19.74 1355
19.8 1428
19.86 1510
19.92 1511
19.98 1545
20 1529

File: 35-14.ASC
3 2341
3.06 1977
3.12 1736
3.18 1623
3.24 1641
3.3 1522
3.36 1468
3.42 1473
3.48 1347
3.54 1316
3.6 1296
3.66 1285
3.72 1183
3.78 1211
3.84 1165
3.9 1141
3.96 1138
4.02 1159
4.08 1057
4.14 1026
4.2 1040
4.26 1102
4.32 1035
4.38 983
4.44 985
4.5 985
4.56 973
4.62 941
4.68 909
4.74 872
4.8 924
4.86 856
4.92 881
4.98 903
5.04 902
5.1 874
5.16 826
5.22 839
5.28 892
5.34 800
5.4 810
5.46 802
5.52 897
5.58 826
5.64 838
5.7 849
5.76 843
5.82 791
5.88 766
5.94 804
6 784
6.06 794
6.12 805
6.18 783
6.24 804
6.3 837
6.36 805
6.42 844
6.48 792
6.54 830
6.6 843
6.66 769
6.72 782
6.78 815
6.84 803
6.9 766
6.96 796
7.02 783
7.08 798
7.14 783
7.2 793
7.26 800
7.32 759
7.38 794
7.44 797
7.5 789
7.56 776
7.62 785
7.68 797
7.74 789
7.8 786
7.86 798
7.92 790
7.98 837
8.04 789
8.1 750
8.16 760
8.22 799
8.28 784
8.34 765
8.4 767
8.46 778
8.52 769
8.58 784
8.64 796
8.7 789
8.76 802
8.82 734
8.88 732
8.94 751
9 803
9.06 821
9.12 750
9.18 778
9.24 764
9.3 762
9.36 788
9.42 753
9.48 786
9.54 787
9.6 737
9.66 778
9.72 788
9.78 780
9.84 768
9.9 776
9.96 771
10.02 758
10.08 806
10.14 753
10.2 778
10.26 769
10.32 774
10.38 753
10.44 774
10.5 753
10.56 718
10.62 770
10.68 795
10.74 782
10.8 758
10.86 775
10.92 795
10.98 781
11.04 731
11.1 752
11.16 761
11.22 768
11.28 738
11.34 797
11.4 779
11.46 822
11.52 734
11.58 797
11.64 829
11.7 832
11.76 759
11.82 768
11.88 838
11.94 753
12 781
12.06 807
12.12 789
12.18 806
12.24 755
12.3 809
12.36 785
12.42 850
12.48 813
12.54 770
12.6 794
12.66 869
12.72 821
12.78 844
12.84 831
12.9 829
12.96 839
13.02 879
13.08 846
13.14 821
13.2 852
13.26 832
13.32 877
13.38 872
13.44 905
13.5 896
13.56 903
13.62 874
13.68 888
13.74 901
13.8 909
13.86 874
13.92 832
13.98 902
14.04 888
14.1 901
14.16 887
14.22 940
14.28 940
14.34 918
14.4 897
14.46 861
14.52 958
14.58 974
14.64 921
14.7 1019
14.76 966
14.82 966
14.88 993
14.94 997
15 990
15.06 1006
15.12 1032
15.18 993
15.24 1014
15.3 1057
15.36 1068
15.42 1091
15.48 1039
15.54 1124
15.6 1055
15.66 1049
15.72 1180
15.78 1132
15.84 1125
15.9 1130
15.96 1149
16.02 1219
16.08 1146
16.14 1214
16.2 1150
16.26 1174
16.32 1206
16.38 1217
16.44 1145
16.5 1275
16.56 1240
16.62 1290
16.68 1295
16.74 1340
16.8 1407
16.86 1495
16.92 1684
16.98 2002
17.04 2117
17.1 1825
17.16 1514
17.22 1423
17.28 1422
17.34 1476
17.4 1426
17.46 1430
17.52 1455
17.58 1415
17.64 1489
17.7 1512
17.76 1539
17.82 1527
17.88 1549
17.94 1584
18 1521
18.06 1526
18.12 1591
18.18 1686
18.24 1661
18.3 1698
18.36 1700
18.42 1621
18.48 1709
18.54 1682
18.6 1748
18.66 1797
18.72 1883
18.78 1806
18.84 1811
18.9 1862
18.96 1920
19.02 1835
19.08 1841
19.14 1841
19.2 1895
19.26 2011
19.32 1960
19.38 2017
19.44 1980
19.5 2060
19.56 2022
19.62 2082
19.68 2056
19.74 2104
19.8 2137
19.86 2121
19.92 2152
19.98 2129
20 2201

File: 35-15.ASC
3 2481
3.06 2098
3.12 1893
3.18 1740
3.24 1797
3.3 1690
3.36 1629
3.42 1699
3.48 1616
3.54 1593
3.6 1615
3.66 1646
3.72 1652
3.78 1704
3.84 1747
3.9 1748
3.96 1854
4.02 2013
4.08 2177
4.14 2045
4.2 1632
4.26 1447
4.32 1326
4.38 1349
4.44 1303
4.5 1307
4.56 1355
4.62 1361
4.68 1385
4.74 1464
4.8 1509
4.86 1469
4.92 1664
4.98 1780
5.04 1978
5.1 2049
5.16 2337
5.22 2713
5.28 3083
5.34 4037
5.4 5528
5.46 4407
5.52 3734
5.58 4087
5.64 4753
5.7 6262
5.76 9244
5.82 5083
5.88 1921
5.94 1567
6 1277
6.06 1284
6.12 1237
6.18 1236
6.24 1120
6.3 1137
6.36 1151
6.42 1236
6.48 1286
6.54 1456
6.6 1654
6.66 1698
6.72 1600
6.78 1467
6.84 1146
6.9 934
6.96 969
7.02 890
7.08 940
7.14 931
7.2 942
7.26 874
7.32 913
7.38 906
7.44 869
7.5 912
7.56 851
7.62 848
7.68 931
7.74 869
7.8 861
7.86 890
7.92 936
7.98 945
8.04 952
8.1 981
8.16 949
8.22 901
8.28 847
8.34 856
8.4 877
8.46 909
8.52 823
8.58 906
8.64 890
8.7 820
8.76 853
8.82 917
8.88 938
8.94 982
9 1038
9.06 1117
9.12 1185
9.18 1452
9.24 1749
9.3 2526
9.36 2596
9.42 1145
9.48 931
9.54 888
9.6 879
9.66 932
9.72 956
9.78 961
9.84 916
9.9 891
9.96 943
10.02 970
10.08 1096
10.14 1243
10.2 1239
10.26 974
10.32 892
10.38 919
10.44 867
10.5 881
10.56 925
10.62 1021
10.68 1096
10.74 1301
10.8 1398
10.86 1424
10.92 1703
10.98 1835
11.04 1066
11.1 954
11.16 872
11.22 890
11.28 860
11.34 989
11.4 1025
11.46 1240
11.52 1146
11.58 906
11.64 851
11.7 867
11.76 824
11.82 790
11.88 770
11.94 849
12 844
12.06 870
12.12 891
12.18 1026
12.24 998
12.3 885
12.36 859
12.42 846
12.48 863
12.54 771
12.6 871
12.66 844
12.72 841
12.78 833
12.84 871
12.9 791
12.96 835
13.02 821
13.08 873
13.14 827
13.2 868
13.26 962
13.32 883
13.38 840
13.44 932
13.5 894
13.56 850
13.62 803
13.68 841
13.74 816
13.8 824
13.86 832
13.92 832
13.98 814
14.04 848
14.1 820
14.16 893
14.22 916
14.28 951
14.34 998
14.4 962
14.46 882
14.52 877
14.58 846
14.64 876
14.7 892
14.76 976
14.82 939
14.88 902
14.94 856
15 930
15.06 924
15.12 916
15.18 922
15.24 993
15.3 930
15.36 930
15.42 925
15.48 893
15.54 974
15.6 925
15.66 914
15.72 964
15.78 940
15.84 944
15.9 885
15.96 986
16.02 968
16.08 1002
16.14 1011
16.2 1045
16.26 1117
16.32 1021
16.38 1063
16.44 1007
16.5 978
16.56 972
16.62 1004
16.68 1040
16.74 1058
16.8 1051
16.86 1072
16.92 1157
16.98 1357
17.04 1163
17.1 1097
17.16 1130
17.22 1163
17.28 1171
17.34 1140
17.4 1133
17.46 1115
17.52 1156
17.58 1132
17.64 1137
17.7 1162
17.76 1230
17.82 1179
17.88 1194
17.94 1217
18 1241
18.06 1233
18.12 1185
18.18 1219
18.24 1214
18.3 1206
18.36 1217
18.42 1232
18.48 1212
18.54 1236
18.6 1386
18.66 1360
18.72 1396
18.78 1381
18.84 1358
18.9 1365
18.96 1333
19.02 1463
19.08 1480
19.14 1507
19.2 1439
19.26 1448
19.32 1425
19.38 1487
19.44 1547
19.5 1610
19.56 1622
19.62 1471
19.68 1479
19.74 1479
19.8 1463
19.86 1682
19.92 1512
19.98 1440
20 1429

File: 35-16.ASC
3 2290
3.06 1900
3.12 1727
3.18 1581
3.24 1519
3.3 1483
3.36 1416
3.42 1448
3.48 1397
3.54 1406
3.6 1342
3.66 1309
3.72 1341
3.78 1350
3.84 1236
3.9 1265
3.96 1227
4.02 1214
4.08 1259
4.14 1211
4.2 1281
4.26 1192
4.32 1117
4.38 1189
4.44 1118
4.5 1161
4.56 1080
4.62 1210
4.68 1067
4.74 1177
4.8 1090
4.86 1142
4.92 1190
4.98 1279
5.04 1234
5.1 1362
5.16 1452
5.22 1658
5.28 1889
5.34 2136
5.4 2867
5.46 3533
5.52 2544
5.58 1952
5.64 1857
5.7 1682
5.76 1981
5.82 1866
5.88 1531
5.94 1082
6 927
6.06 881
6.12 846
6.18 837
6.24 813
6.3 814
6.36 798
6.42 832
6.48 816
6.54 814
6.6 768
6.66 811
6.72 848
6.78 812
6.84 806
6.9 758
6.96 763
7.02 754
7.08 709
7.14 712
7.2 705
7.26 704
7.32 716
7.38 717
7.44 747
7.5 753
7.56 675
7.62 737
7.68 690
7.74 684
7.8 712
7.86 706
7.92 650
7.98 705
8.04 696
8.1 715
8.16 706
8.22 732
8.28 741
8.34 640
8.4 684
8.46 692
8.52 682
8.58 736
8.64 690
8.7 655
8.76 683
8.82 677
8.88 687
8.94 725
9 696
9.06 787
9.12 751
9.18 856
9.24 1041
9.3 1242
9.36 1631
9.42 1370
9.48 904
9.54 698
9.6 751
9.66 647
9.72 747
9.78 699
9.84 685
9.9 747
9.96 744
10.02 732
10.08 801
10.14 746
10.2 820
10.26 773
10.32 721
10.38 759
10.44 711
10.5 733
10.56 727
10.62 754
10.68 815
10.74 943
10.8 1126
10.86 1105
10.92 959
10.98 955
11.04 888
11.1 774
11.16 721
11.22 723
11.28 692
11.34 715
11.4 698
11.46 778
11.52 737
11.58 776
11.64 716
11.7 710
11.76 701
11.82 714
11.88 670
11.94 724
12 701
12.06 752
12.12 717
12.18 796
12.24 821
12.3 795
12.36 721
12.42 725
12.48 732
12.54 735
12.6 702
12.66 708
12.72 743
12.78 788
12.84 679
12.9 738
12.96 720
13.02 853
13.08 788
13.14 779
13.2 779
13.26 798
13.32 808
13.38 807
13.44 828
13.5 813
13.56 793
13.62 818
13.68 801
13.74 810
13.8 797
13.86 811
13.92 793
13.98 803
14.04 790
14.1 807
14.16 849
14.22 860
14.28 932
14.34 948
14.4 858
14.46 944
14.52 834
14.58 851
14.64 812
14.7 889
14.76 846
14.82 912
14.88 910
14.94 938
15 936
15.06 874
15.12 904
15.18 980
15.24 952
15.3 956
15.36 887
15.42 941
15.48 978
15.54 878
15.6 967
15.66 920
15.72 934
15.78 1011
15.84 981
15.9 944
15.96 978
16.02 1064
16.08 1028
16.14 1034
16.2 1101
16.26 1048
16.32 1094
16.38 1090
16.44 1105
16.5 1124
16.56 1114
16.62 1091
16.68 1180
16.74 1185
16.8 1213
16.86 1286
16.92 1602
16.98 2249
17.04 2699
17.1 1694
17.16 1301
17.22 1268
17.28 1279
17.34 1286
17.4 1277
17.46 1258
17.52 1318
17.58 1286
17.64 1324
17.7 1327
17.76 1304
17.82 1301
17.88 1367
17.94 1360
18 1295
18.06 1356
18.12 1307
18.18 1359
18.24 1415
18.3 1406
18.36 1407
18.42 1408
18.48 1457
18.54 1483
18.6 1549
18.66 1571
18.72 1561
18.78 1484
18.84 1582
18.9 1532
18.96 1521
19.02 1557
19.08 1608
19.14 1714
19.2 1726
19.26 1627
19.32 1613
19.38 1751
19.44 1786
19.5 1841
19.56 1897
19.62 1837
19.68 1748
19.74 1670
19.8 1642
19.86 1792
19.92 1806
19.98 1685
20 1758

File: 35-20.ASC
3 4281
3.06 4037
3.12 3089
3.18 2937
3.24 2479
3.3 2357
3.36 2453
3.42 2261
3.48 2072
3.54 2019
3.6 1893
3.66 1835
3.72 1761
3.78 1715
3.84 1732
3.9 1671
3.96 1696
4.02 1650
4.08 1670
4.14 1763
4.2 1740
4.26 1694
4.32 1725
4.38 1713
4.44 1679
4.5 1663
4.56 1640
4.62 1501
4.68 1591
4.74 1594
4.8 1553
4.86 1677
4.92 1587
4.98 1556
5.04 1653
5.1 1653
5.16 1727
5.22 1835
5.28 1855
5.34 2057
5.4 2334
5.46 2490
5.52 1948
5.58 1871
5.64 1851
5.7 1993
5.76 2179
5.82 2114
5.88 1552
5.94 1294
6 1163
6.06 1157
6.12 1093
6.18 1105
6.24 1060
6.3 1086
6.36 1024
6.42 1040
6.48 1018
6.54 1001
6.6 974
6.66 1037
6.72 1021
6.78 1046
6.84 991
6.9 916
6.96 942
7.02 921
7.08 890
7.14 946
7.2 901
7.26 870
7.32 909
7.38 848
7.44 931
7.5 870
7.56 903
7.62 818
7.68 888
7.74 888
7.8 864
7.86 890
7.92 876
7.98 862
8.04 856
8.1 841
8.16 882
8.22 921
8.28 839
8.34 890
8.4 871
8.46 900
8.52 790
8.58 842
8.64 911
8.7 862
8.76 800
8.82 784
8.88 856
8.94 868
9 861
9.06 930
9.12 932
9.18 1019
9.24 1148
9.3 1224
9.36 1442
9.42 1049
9.48 917
9.54 864
9.6 830
9.66 865
9.72 857
9.78 885
9.84 919
9.9 857
9.96 884
10.02 907
10.08 877
10.14 951
10.2 920
10.26 909
10.32 877
10.38 824
10.44 808
10.5 876
10.56 866
10.62 934
10.68 936
10.74 961
10.8 1056
10.86 1024
10.92 1052
10.98 1058
11.04 934
11.1 863
11.16 831
11.22 843
11.28 834
11.34 834
11.4 877
11.46 851
11.52 938
11.58 859
11.64 849
11.7 854
11.76 822
11.82 862
11.88 829
11.94 840
12 854
12.06 898
12.12 845
12.18 855
12.24 900
12.3 931
12.36 883
12.42 922
12.48 906
12.54 876
12.6 852
12.66 894
12.72 846
12.78 927
12.84 873
12.9 927
12.96 875
13.02 857
13.08 914
13.14 853
13.2 958
13.26 944
13.32 909
13.38 935
13.44 1014
13.5 906
13.56 957
13.62 970
13.68 957
13.74 1024
13.8 982
13.86 953
13.92 957
13.98 1013
14.04 1017
14.1 1007
14.16 991
14.22 1047
14.28 1042
14.34 1068
14.4 1087
14.46 1100
14.52 1062
14.58 1045
14.64 983
14.7 1115
14.76 1092
14.82 1125
14.88 1101
14.94 1112
15 1076
15.06 1120
15.12 1173
15.18 1124
15.24 1164
15.3 1181
15.36 1172
15.42 1132
15.48 1181
15.54 1124
15.6 1230
15.66 1311
15.72 1183
15.78 1254
15.84 1229
15.9 1274
15.96 1273
16.02 1278
16.08 1325
16.14 1269
16.2 1346
16.26 1337
16.32 1279
16.38 1338
16.44 1388
16.5 1371
16.56 1421
16.62 1451
16.68 1455
16.74 1470
16.8 1506
16.86 1637
16.92 1875
16.98 2303
17.04 1834
17.1 1547
17.16 1561
17.22 1498
17.28 1639
17.34 1592
17.4 1607
17.46 1520
17.52 1704
17.58 1664
17.64 1662
17.7 1693
17.76 1675
17.82 1644
17.88 1709
17.94 1667
18 1723
18.06 1649
18.12 1747
18.18 1739
18.24 1856
18.3 1793
18.36 1824
18.42 1859
18.48 1809
18.54 1833
18.6 1901
18.66 1946
18.72 1886
18.78 1905
18.84 1878
18.9 1992
18.96 1938
19.02 2017
19.08 2059
19.14 1979
19.2 2012
19.26 2049
19.32 2108
19.38 2016
19.44 2121
19.5 2222
19.56 2102
19.62 2123
19.68 2107
19.74 2044
19.8 2221
19.86 2111
19.92 2146
19.98 2192
20 2170

File: 35-21.ASC
3 2262
3.06 1856
3.12 1805
3.18 1590
3.24 1585
3.3 1527
3.36 1451
3.42 1502
3.48 1374
3.54 1354
3.6 1455
3.66 1411
3.72 1431
3.78 1415
3.84 1459
3.9 1474
3.96 1456
4.02 1494
4.08 1536
4.14 1626
4.2 1530
4.26 1530
4.32 1420
4.38 1625
4.44 1532
4.5 1509
4.56 1555
4.62 1561
4.68 1591
4.74 1619
4.8 1619
4.86 1611
4.92 1649
4.98 1699
5.04 1643
5.1 1632
5.16 1727
5.22 1697
5.28 1637
5.34 1690
5.4 1786
5.46 2014
5.52 1672
5.58 1702
5.64 1729
5.7 1787
5.76 2019
5.82 2595
5.88 1494
5.94 1215
6 1204
6.06 1070
6.12 1075
6.18 1128
6.24 1027
6.3 998
6.36 1009
6.42 978
6.48 914
6.54 964
6.6 973
6.66 1086
6.72 1018
6.78 899
6.84 936
6.9 814
6.96 813
7.02 816
7.08 808
7.14 744
7.2 792
7.26 747
7.32 807
7.38 737
7.44 761
7.5 772
7.56 747
7.62 757
7.68 731
7.74 741
7.8 784
7.86 736
7.92 756
7.98 750
8.04 752
8.1 766
8.16 765
8.22 746
8.28 743
8.34 704
8.4 734
8.46 676
8.52 754
8.58 698
8.64 705
8.7 694
8.76 764
8.82 726
8.88 721
8.94 703
9 796
9.06 708
9.12 811
9.18 804
9.24 848
9.3 877
9.36 1110
9.42 974
9.48 768
9.54 800
9.6 743
9.66 775
9.72 714
9.78 773
9.84 687
9.9 688
9.96 707
10.02 712
10.08 762
10.14 713
10.2 842
10.26 793
10.32 732
10.38 714
10.44 700
10.5 671
10.56 704
10.62 751
10.68 686
10.74 800
10.8 841
10.86 837
10.92 810
10.98 995
11.04 970
11.1 729
11.16 665
11.22 717
11.28 672
11.34 775
11.4 690
11.46 737
11.52 843
11.58 825
11.64 753
11.7 667
11.76 729
11.82 679
11.88 690
11.94 729
12 732
12.06 706
12.12 732
12.18 714
12.24 727
12.3 729
12.36 715
12.42 729
12.48 713
12.54 721
12.6 706
12.66 714
12.72 701
12.78 713
12.84 668
12.9 685
12.96 692
13.02 769
13.08 753
13.14 702
13.2 728
13.26 727
13.32 722
13.38 737
13.44 712
13.5 731
13.56 719
13.62 725
13.68 758
13.74 777
13.8 767
13.86 756
13.92 748
13.98 756
14.04 751
14.1 760
14.16 750
14.22 791
14.28 770
14.34 782
14.4 747
14.46 808
14.52 794
14.58 776
14.64 830
14.7 768
14.76 775
14.82 762
14.88 912
14.94 789
15 806
15.06 842
15.12 862
15.18 816
15.24 841
15.3 871
15.36 847
15.42 868
15.48 829
15.54 871
15.6 844
15.66 879
15.72 881
15.78 868
15.84 923
15.9 857
15.96 881
16.02 872
16.08 892
16.14 866
16.2 947
16.26 880
16.32 971
16.38 960
16.44 966
16.5 921
16.56 954
16.62 988
16.68 1030
16.74 1024
16.8 985
16.86 1038
16.92 1039
16.98 1118
17.04 1084
17.1 1053
17.16 1062
17.22 1099
17.28 1089
17.34 1075
17.4 1111
17.46 1140
17.52 1161
17.58 1066
17.64 1149
17.7 1158
17.76 1155
17.82 1189
17.88 1158
17.94 1194
18 1229
18.06 1182
18.12 1224
18.18 1208
18.24 1189
18.3 1212
18.36 1267
18.42 1244
18.48 1202
18.54 1241
18.6 1292
18.66 1344
18.72 1366
18.78 1318
18.84 1415
18.9 1324
18.96 1307
19.02 1401
19.08 1389
19.14 1549
19.2 1437
19.26 1459
19.32 1406
19.38 1392
19.44 1421
19.5 1492
19.56 1542
19.62 1553
19.68 1495
19.74 1427
19.8 1430
19.86 1536
19.92 1628
19.98 1506
20 1462

File: 35-24.ASC
3 2390
3.1 1771
3.2 1626
3.3 1505
3.4 1333
3.5 1317
3.6 1206
3.7 1186
3.8 1144
3.9 1142
4 1081
4.1 1032
4.2 1098
4.3 994
4.4 973
4.5 987
4.6 926
4.7 917
4.8 918
4.9 921
5 876
5.1 903
5.2 865
5.3 859
5.4 961
5.5 883
5.6 857
5.7 869
5.8 811
5.9 781
6 710
6.1 648
6.2 647
6.3 622
6.4 658
6.5 614
6.6 631
6.7 579
6.8 594
6.9 611
7 559
7.1 604
7.2 614
7.3 597
7.4 612
7.5 591
7.6 597
7.7 605
7.8 563
7.9 605
8 563
8.1 590
8.2 597
8.3 592
8.4 541
8.5 556
8.6 560
8.7 579
8.8 583
8.9 565
9 557
9.1 552
9.2 560
9.3 592
9.4 551
9.5 558
9.6 527
9.7 582
9.8 515
9.9 549
10 526
10.1 557
10.2 575
10.3 574
10.4 570
10.5 521
10.6 543
10.7 529
10.8 573
10.9 574
11 526
11.1 532
11.2 537
11.3 493
11.4 546
11.5 520
11.6 522
11.7 513
11.8 525
11.9 534
12 487
12.1 520
12.2 551
12.3 520
12.4 529
12.5 519
12.6 580
12.7 498
12.8 533
12.9 556
13 496
13.1 544
13.2 557
13.3 531
13.4 547
13.5 575
13.6 561
13.7 560
13.8 564
13.9 552
14 548
14.1 566
14.2 561
14.3 601
14.4 588
14.5 557
14.6 579
14.7 584
14.8 606
14.9 573
15 603
15.1 595
15.2 573
15.3 595
15.4 577
15.5 598
15.6 573
15.7 641
15.8 628
15.9 638
16 634
16.1 651
16.2 650
16.3 670
16.4 697
16.5 683
16.6 746
16.7 747
16.8 723
16.9 859
17 1278
17.1 959
17.2 735
17.3 757
17.4 755
17.5 759
17.6 784
17.7 829
17.8 804
17.9 831
18 843
18.1 794
18.2 857
18.3 837
18.4 841
18.5 839
18.6 879
18.7 916
18.8 906
18.9 882
19 868
19.1 956
19.2 924
19.3 972
19.4 988
19.5 926
19.6 1000
19.7 1059
19.8 1005
19.9 1002
20 973
20.1 1077
20.2 1030
20.3 1034
20.4 1071
20.5 1036
20.6 1098
20.7 1103
20.8 1097
20.9 1086
21 1053
21.1 1119
21.2 1138
21.3 1046
21.4 1069
21.5 1093
21.6 1153
21.7 1096
21.8 1121
21.9 1130
22 1171
22.1 1153
22.2 1139
22.3 1086
22.4 1124
22.5 1148
22.6 1170
22.7 1105
22.8 1148
22.9 1185
23 1195
23.1 1134
23.2 1114
23.3 1161
23.4 1106
23.5 1115
23.6 1129
23.7 1118
23.8 1147
23.9 1151
24 1149
24.1 1152
24.2 1155
24.3 1084
24.4 1123
24.5 1145
24.6 1113
24.7 1105
24.8 1131
24.9 1184
25 1089
25.1 1068
25.2 1071
25.3 1158
25.4 1129
25.5 1057
25.6 1071
25.7 1064
25.8 1085
25.9 1056
26 1061
26.1 1029
26.2 1041
26.3 1050
26.4 1025
26.5 1037
26.6 1009
26.7 992
26.8 1057
26.9 1086
27 1040
27.1 1040
27.2 1000
27.3 1003
27.4 1009
27.5 1045
27.6 997
27.7 934
27.8 1003
27.9 989
28 953
28.1 980
28.2 1047
28.3 973
28.4 926
28.5 910
28.6 946
28.7 985
28.8 944
28.9 844
29 939
29.1 925
29.2 986
29.3 931
29.4 955
29.5 943
29.6 887
29.7 831
29.8 905
29.9 904
30 951

File: 35-28.ASC
3 3087
3.06 2643
3.12 2406
3.18 2366
3.24 2152
3.3 2042
3.36 1915
3.42 2066
3.48 1913
3.54 1803
3.6 1822
3.66 1720
3.72 1651
3.78 1599
3.84 1572
3.9 1573
3.96 1564
4.02 1421
4.08 1425
4.14 1522
4.2 1418
4.26 1466
4.32 1390
4.38 1374
4.44 1355
4.5 1402
4.56 1296
4.62 1290
4.68 1209
4.74 1268
4.8 1193
4.86 1217
4.92 1241
4.98 1201
5.04 1174
5.1 1193
5.16 1125
5.22 1145
5.28 1121
5.34 1054
5.4 1111
5.46 1080
5.52 1032
5.58 1053
5.64 978
5.7 972
5.76 963
5.82 885
5.88 913
5.94 887
6 870
6.06 893
6.12 894
6.18 858
6.24 870
6.3 867
6.36 835
6.42 825
6.48 791
6.54 816
6.6 803
6.66 795
6.72 785
6.78 774
6.84 788
6.9 763
6.96 832
7.02 790
7.08 738
7.14 698
7.2 749
7.26 756
7.32 767
7.38 740
7.44 757
7.5 725
7.56 718
7.62 754
7.68 686
7.74 698
7.8 695
7.86 693
7.92 672
7.98 720
8.04 674
8.1 704
8.16 696
8.22 689
8.28 715
8.34 720
8.4 660
8.46 657
8.52 706
8.58 679
8.64 637
8.7 677
8.76 645
8.82 660
8.88 653
8.94 701
9 704
9.06 684
9.12 681
9.18 626
9.24 668
9.3 650
9.36 661
9.42 683
9.48 678
9.54 685
9.6 687
9.66 643
9.72 651
9.78 608
9.84 670
9.9 670
9.96 660
10.02 643
10.08 635
10.14 618
10.2 640
10.26 617
10.32 624
10.38 631
10.44 618
10.5 622
10.56 665
10.62 609
10.68 632
10.74 620
10.8 636
10.86 570
10.92 617
10.98 662
11.04 634
11.1 636
11.16 605
11.22 602
11.28 653
11.34 591
11.4 631
11.46 624
11.52 636
11.58 620
11.64 609
11.7 606
11.76 628
11.82 604
11.88 618
11.94 651
12 659
12.06 623
12.12 665
12.18 639
12.24 670
12.3 613
12.36 599
12.42 631
12.48 666
12.54 655
12.6 648
12.66 652
12.72 669
12.78 686
12.84 667
12.9 682
12.96 696
13.02 744
13.08 683
13.14 682
13.2 675
13.26 695
13.32 687
13.38 700
13.44 660
13.5 725
13.56 668
13.62 772
13.68 709
13.74 706
13.8 721
13.86 706
13.92 699
13.98 731
14.04 726
14.1 732
14.16 761
14.22 722
14.28 762
14.34 708
14.4 747
14.46 787
14.52 776
14.58 755
14.64 777
14.7 753
14.76 779
14.82 791
14.88 770
14.94 801
15 762
15.06 763
15.12 779
15.18 840
15.24 822
15.3 826
15.36 830
15.42 820
15.48 861
15.54 806
15.6 862
15.66 879
15.72 891
15.78 905
15.84 825
15.9 882
15.96 857
16.02 905
16.08 911
16.14 842
16.2 855
16.26 907
16.32 967
16.38 942
16.44 939
16.5 940
16.56 938
16.62 995
16.68 952
16.74 1023
16.8 1031
16.86 1081
16.92 1253
16.98 1665
17.04 1807
17.1 1333
17.16 1063
17.22 1020
17.28 1091
17.34 1053
17.4 1051
17.46 1054
17.52 1104
17.58 1115
17.64 1103
17.7 1176
17.76 1123
17.82 1161
17.88 1096
17.94 1185
18 1148
18.06 1207
18.12 1175
18.18 1248
18.24 1143
18.3 1238
18.36 1215
18.42 1177
18.48 1289
18.54 1267
18.6 1234
18.66 1307
18.72 1317
18.78 1339
18.84 1297
18.9 1286
18.96 1333
19.02 1293
19.08 1372
19.14 1332
19.2 1384
19.26 1345
19.32 1405
19.38 1413
19.44 1389
19.5 1346
19.56 1463
19.62 1389
19.68 1354
19.74 1438
19.8 1434
19.86 1489
19.92 1483
19.98 1484
20 1540