Folder: CPC-code/xrd-UiO-67/pxrddata (part 24)

File: 51-1.ASC
3 5822
3.06 4630
3.12 3819
3.18 3050
3.24 2520
3.3 2114
3.36 1809
3.42 1737
3.48 1639
3.54 1576
3.6 1474
3.66 1415
3.72 1443
3.78 1397
3.84 1266
3.9 1302
3.96 1230
4.02 1198
4.08 1161
4.14 1118
4.2 1097
4.26 1028
4.32 1025
4.38 1011
4.44 1008
4.5 947
4.56 937
4.62 889
4.68 873
4.74 857
4.8 859
4.86 896
4.92 838
4.98 791
5.04 816
5.1 833
5.16 814
5.22 784
5.28 790
5.34 830
5.4 841
5.46 795
5.52 847
5.58 779
5.64 739
5.7 699
5.76 686
5.82 719
5.88 636
5.94 696
6 693
6.06 665
6.12 611
6.18 597
6.24 645
6.3 613
6.36 619
6.42 631
6.48 605
6.54 616
6.6 622
6.66 619
6.72 626
6.78 595
6.84 577
6.9 628
6.96 547
7.02 598
7.08 592
7.14 576
7.2 576
7.26 530
7.32 560
7.38 559
7.44 542
7.5 555
7.56 531
7.62 573
7.68 539
7.74 583
7.8 554
7.86 548
7.92 546
7.98 524
8.04 535
8.1 551
8.16 491
8.22 559
8.28 518
8.34 559
8.4 541
8.46 555
8.52 525
8.58 538
8.64 511
8.7 521
8.76 552
8.82 517
8.88 524
8.94 504
9 494
9.06 506
9.12 543
9.18 568
9.24 523
9.3 530
9.36 605
9.42 554
9.48 595
9.54 565
9.6 552
9.66 529
9.72 528
9.78 499
9.84 495
9.9 471
9.96 522
10.02 499
10.08 504
10.14 495
10.2 483
10.26 506
10.32 490
10.38 517
10.44 484
10.5 495
10.56 524
10.62 541
10.68 461
10.74 534
10.8 507
10.86 540
10.92 518
10.98 513
11.04 477
11.1 511
11.16 500
11.22 496
11.28 511
11.34 486
11.4 518
11.46 517
11.52 491
11.58 498
11.64 532
11.7 556
11.76 504
11.82 551
11.88 505
11.94 506
12 468
12.06 531
12.12 521
12.18 503
12.24 530
12.3 511
12.36 515
12.42 503
12.48 559
12.54 520
12.6 500
12.66 500
12.72 579
12.78 546
12.84 505
12.9 515
12.96 518
13.02 553
13.08 531
13.14 535
13.2 517
13.26 515
13.32 545
13.38 537
13.44 536
13.5 564
13.56 532
13.62 543
13.68 518
13.74 580
13.8 577
13.86 500
13.92 560
13.98 523
14.04 560
14.1 555
14.16 579
14.22 572
14.28 582
14.34 603
14.4 550
14.46 604
14.52 580
14.58 580
14.64 563
14.7 613
14.76 633
14.82 643
14.88 636
14.94 619
15 638
15.06 617
15.12 634
15.18 650
15.24 629
15.3 607
15.36 624
15.42 694
15.48 666
15.54 635
15.6 656
15.66 641
15.72 671
15.78 706
15.84 616
15.9 659
15.96 666
16.02 707
16.08 677
16.14 718
16.2 723
16.26 702
16.32 758
16.38 717
16.44 724
16.5 712
16.56 796
16.62 741
16.68 755
16.74 811
16.8 826
16.86 868
16.92 1055
16.98 1358
17.04 1426
17.1 1069
17.16 861
17.22 880
17.28 793
17.34 866
17.4 829
17.46 858
17.52 889
17.58 837
17.64 856
17.7 843
17.76 842
17.82 872
17.88 862
17.94 877
18 912
18.06 927
18.12 935
18.18 928
18.24 897
18.3 942
18.36 913
18.42 940
18.48 974
18.54 981
18.6 933
18.66 992
18.72 982
18.78 1012
18.84 1014
18.9 970
18.96 1052
19.02 1050
19.08 1025
19.14 1043
19.2 1027
19.26 1043
19.32 1022
19.38 1061
19.44 1060
19.5 1068
19.56 1070
19.62 1105
19.68 1110
19.74 1129
19.8 1125
19.86 1099
19.92 1092
19.98 1091
20 1176

File: 51-9.ASC
3 5675
3.06 4576
3.12 3797
3.18 2934
3.24 2511
3.3 2058
3.36 1756
3.42 1584
3.48 1592
3.54 1572
3.6 1524
3.66 1482
3.72 1418
3.78 1431
3.84 1258
3.9 1323
3.96 1264
4.02 1163
4.08 1266
4.14 1251
4.2 1132
4.26 1130
4.32 1164
4.38 1082
4.44 1053
4.5 1024
4.56 1003
4.62 983
4.68 955
4.74 937
4.8 953
4.86 940
4.92 960
4.98 942
5.04 889
5.1 958
5.16 935
5.22 950
5.28 954
5.34 946
5.4 1005
5.46 1085
5.52 1007
5.58 892
5.64 889
5.7 833
5.76 802
5.82 831
5.88 788
5.94 810
6 837
6.06 824
6.12 800
6.18 783
6.24 781
6.3 800
6.36 781
6.42 764
6.48 785
6.54 770
6.6 753
6.66 764
6.72 723
6.78 723
6.84 769
6.9 742
6.96 774
7.02 757
7.08 749
7.14 727
7.2 675
7.26 710
7.32 720
7.38 768
7.44 715
7.5 717
7.56 722
7.62 684
7.68 735
7.74 701
7.8 674
7.86 684
7.92 659
7.98 697
8.04 693
8.1 649
8.16 676
8.22 672
8.28 674
8.34 646
8.4 653
8.46 653
8.52 697
8.58 669
8.64 634
8.7 667
8.76 645
8.82 626
8.88 631
8.94 602
9 631
9.06 705
9.12 645
9.18 635
9.24 710
9.3 644
9.36 681
9.42 690
9.48 658
9.54 658
9.6 655
9.66 658
9.72 630
9.78 634
9.84 665
9.9 664
9.96 591
10.02 574
10.08 579
10.14 612
10.2 584
10.26 578
10.32 644
10.38 553
10.44 595
10.5 584
10.56 578
10.62 569
10.68 647
10.74 538
10.8 573
10.86 641
10.92 623
10.98 606
11.04 627
11.1 633
11.16 583
11.22 555
11.28 622
11.34 567
11.4 605
11.46 597
11.52 631
11.58 598
11.64 576
11.7 623
11.76 626
11.82 599
11.88 592
11.94 605
12 580
12.06 618
12.12 622
12.18 614
12.24 577
12.3 637
12.36 604
12.42 556
12.48 579
12.54 598
12.6 616
12.66 612
12.72 607
12.78 619
12.84 634
12.9 624
12.96 601
13.02 598
13.08 602
13.14 630
13.2 612
13.26 614
13.32 631
13.38 674
13.44 624
13.5 623
13.56 652
13.62 606
13.68 663
13.74 642
13.8 691
13.86 590
13.92 684
13.98 684
14.04 666
14.1 683
14.16 674
14.22 687
14.28 646
14.34 692
14.4 678
14.46 664
14.52 654
14.58 688
14.64 689
14.7 713
14.76 714
14.82 755
14.88 681
14.94 750
15 745
15.06 738
15.12 677
15.18 723
15.24 738
15.3 692
15.36 721
15.42 747
15.48 750
15.54 741
15.6 746
15.66 766
15.72 754
15.78 756
15.84 741
15.9 750
15.96 802
16.02 772
16.08 795
16.14 813
16.2 813
16.26 776
16.32 772
16.38 878
16.44 848
16.5 837
16.56 810
16.62 891
16.68 895
16.74 929
16.8 904
16.86 958
16.92 1015
16.98 1190
17.04 1203
17.1 1040
17.16 976
17.22 964
17.28 929
17.34 974
17.4 940
17.46 936
17.52 990
17.58 1006
17.64 965
17.7 1022
17.76 1103
17.82 1070
17.88 1022
17.94 969
18 1025
18.06 1087
18.12 1081
18.18 1100
18.24 1084
18.3 1142
18.36 1073
18.42 1104
18.48 1131
18.54 1169
18.6 1220
18.66 1167
18.72 1133
18.78 1167
18.84 1151
18.9 1273
18.96 1204
19.02 1249
19.08 1192
19.14 1204
19.2 1198
19.26 1287
19.32 1204
19.38 1232
19.44 1293
19.5 1312
19.56 1300
19.62 1301
19.68 1258
19.74 1276
19.8 1369
19.86 1285
19.92 1360
19.98 1333
20 1358

File: 52-3.ASC
3 5891
3.06 4863
3.12 3844
3.18 3127
3.24 2445
3.3 1951
3.36 1483
3.42 1417
3.48 1403
3.54 1294
3.6 1293
3.66 1224
3.72 1271
3.78 1287
3.84 1242
3.9 1309
3.96 1274
4.02 1283
4.08 1278
4.14 1250
4.2 1159
4.26 1130
4.32 1121
4.38 1079
4.44 1072
4.5 999
4.56 1008
4.62 1042
4.68 1017
4.74 1065
4.8 1142
4.86 1146
4.92 1158
4.98 1282
5.04 1272
5.1 1375
5.16 1487
5.22 1770
5.28 1954
5.34 2411
5.4 3199
5.46 3920
5.52 2316
5.58 1989
5.64 2249
5.7 2561
5.76 3065
5.82 3265
5.88 1769
5.94 1157
6 1009
6.06 926
6.12 863
6.18 862
6.24 831
6.3 809
6.36 837
6.42 759
6.48 820
6.54 852
6.6 846
6.66 893
6.72 941
6.78 978
6.84 944
6.9 794
6.96 784
7.02 720
7.08 764
7.14 762
7.2 748
7.26 786
7.32 715
7.38 748
7.44 746
7.5 713
7.56 702
7.62 686
7.68 743
7.74 718
7.8 729
7.86 743
7.92 761
7.98 762
8.04 757
8.1 757
8.16 755
8.22 734
8.28 716
8.34 743
8.4 765
8.46 740
8.52 742
8.58 740
8.64 753
8.7 759
8.76 732
8.82 723
8.88 762
8.94 798
9 847
9.06 897
9.12 922
9.18 1098
9.24 1226
9.3 1559
9.36 2114
9.42 1211
9.48 840
9.54 823
9.6 814
9.66 777
9.72 796
9.78 822
9.84 770
9.9 842
9.96 774
10.02 815
10.08 884
10.14 934
10.2 1002
10.26 908
10.32 784
10.38 802
10.44 820
10.5 836
10.56 877
10.62 885
10.68 973
10.74 1087
10.8 1372
10.86 1150
10.92 1198
10.98 1265
11.04 1076
11.1 863
11.16 801
11.22 833
11.28 791
11.34 844
11.4 925
11.46 930
11.52 945
11.58 928
11.64 871
11.7 845
11.76 820
11.82 817
11.88 823
11.94 823
12 855
12.06 809
12.12 924
12.18 919
12.24 924
12.3 904
12.36 933
12.42 849
12.48 840
12.54 850
12.6 892
12.66 888
12.72 897
12.78 882
12.84 912
12.9 880
12.96 864
13.02 890
13.08 887
13.14 928
13.2 946
13.26 897
13.32 958
13.38 956
13.44 996
13.5 960
13.56 928
13.62 932
13.68 956
13.74 916
13.8 1004
13.86 959
13.92 946
13.98 931
14.04 1047
14.1 993
14.16 1008
14.22 1077
14.28 1067
14.34 1073
14.4 1077
14.46 1133
14.52 1037
14.58 1018
14.64 1020
14.7 1140
14.76 1089
14.82 1163
14.88 1153
14.94 1118
15 1068
15.06 1111
15.12 1168
15.18 1154
15.24 1190
15.3 1189
15.36 1185
15.42 1179
15.48 1193
15.54 1192
15.6 1228
15.66 1242
15.72 1209
15.78 1240
15.84 1254
15.9 1257
15.96 1256
16.02 1323
16.08 1228
16.14 1331
16.2 1361
16.26 1330
16.32 1338
16.38 1425
16.44 1430
16.5 1366
16.56 1413
16.62 1441
16.68 1431
16.74 1441
16.8 1430
16.86 1421
16.92 1476
16.98 1521
17.04 1517
17.1 1551
17.16 1598
17.22 1579
17.28 1612
17.34 1650
17.4 1579
17.46 1659
17.52 1721
17.58 1634
17.64 1698
17.7 1699
17.76 1741
17.82 1704
17.88 1705
17.94 1776
18 1782
18.06 1786
18.12 1858
18.18 1740
18.24 1832
18.3 1833
18.36 1807
18.42 1891
18.48 1850
18.54 1927
18.6 1996
18.66 2055
18.72 2027
18.78 2016
18.84 2048
18.9 2015
18.96 2112
19.02 2152
19.08 2186
19.14 2243
19.2 2135
19.26 2172
19.32 2207
19.38 2227
19.44 2289
19.5 2365
19.56 2422
19.62 2324
19.68 2199
19.74 2207
19.8 2173
19.86 2285
19.92 2225
19.98 2226
20 2250

File: 52-6.ASC
3 6686
3.06 5396
3.12 4372
3.18 3536
3.24 2839
3.3 2317
3.36 1876
3.42 1752
3.48 1706
3.54 1668
3.6 1606
3.66 1502
3.72 1463
3.78 1413
3.84 1404
3.9 1394
3.96 1364
4.02 1353
4.08 1386
4.14 1463
4.2 1235
4.26 1146
4.32 1082
4.38 1069
4.44 999
4.5 976
4.56 974
4.62 924
4.68 988
4.74 935
4.8 1000
4.86 927
4.92 964
4.98 937
5.04 959
5.1 985
5.16 1000
5.22 1011
5.28 1117
5.34 1225
5.4 1479
5.46 1631
5.52 1226
5.58 1376
5.64 1582
5.7 1870
5.76 2539
5.82 3400
5.88 1358
5.94 875
6 734
6.06 756
6.12 761
6.18 727
6.24 736
6.3 724
6.36 661
6.42 693
6.48 681
6.54 720
6.6 731
6.66 850
6.72 796
6.78 909
6.84 705
6.9 689
6.96 641
7.02 625
7.08 658
7.14 612
7.2 603
7.26 576
7.32 583
7.38 610
7.44 597
7.5 587
7.56 603
7.62 565
7.68 597
7.74 543
7.8 580
7.86 622
7.92 571
7.98 606
8.04 551
8.1 552
8.16 597
8.22 632
8.28 587
8.34 525
8.4 571
8.46 577
8.52 554
8.58 534
8.64 555
8.7 604
8.76 556
8.82 591
8.88 576
8.94 561
9 586
9.06 584
9.12 636
9.18 707
9.24 697
9.3 893
9.36 1413
9.42 787
9.48 608
9.54 562
9.6 549
9.66 538
9.72 536
9.78 612
9.84 560
9.9 509
9.96 566
10.02 614
10.08 599
10.14 676
10.2 784
10.26 649
10.32 545
10.38 562
10.44 526
10.5 585
10.56 548
10.62 535
10.68 611
10.74 636
10.8 755
10.86 736
10.92 815
10.98 1091
11.04 772
11.1 568
11.16 532
11.22 500
11.28 575
11.34 606
11.4 620
11.46 650
11.52 747
11.58 725
11.64 569
11.7 556
11.76 544
11.82 531
11.88 486
11.94 494
12 534
12.06 570
12.12 585
12.18 647
12.24 677
12.3 593
12.36 557
12.42 544
12.48 557
12.54 571
12.6 557
12.66 556
12.72 547
12.78 501
12.84 584
12.9 564
12.96 545
13.02 558
13.08 553
13.14 566
13.2 589
13.26 556
13.32 598
13.38 607
13.44 564
13.5 561
13.56 607
13.62 553
13.68 591
13.74 583
13.8 588
13.86 549
13.92 559
13.98 578
14.04 619
14.1 574
14.16 597
14.22 609
14.28 665
14.34 619
14.4 651
14.46 668
14.52 584
14.58 622
14.64 580
14.7 618
14.76 604
14.82 674
14.88 660
14.94 618
15 638
15.06 651
15.12 593
15.18 681
15.24 666
15.3 660
15.36 678
15.42 640
15.48 707
15.54 697
15.6 636
15.66 623
15.72 646
15.78 673
15.84 668
15.9 629
15.96 683
16.02 691
16.08 709
16.14 706
16.2 748
16.26 802
16.32 804
16.38 798
16.44 755
16.5 757
16.56 750
16.62 776
16.68 739
16.74 773
16.8 819
16.86 833
16.92 891
16.98 989
17.04 996
17.1 898
17.16 858
17.22 828
17.28 902
17.34 864
17.4 877
17.46 877
17.52 898
17.58 858
17.64 861
17.7 905
17.76 924
17.82 905
17.88 873
17.94 925
18 876
18.06 969
18.12 882
18.18 928
18.24 948
18.3 965
18.36 943
18.42 978
18.48 974
18.54 990
18.6 976
18.66 1027
18.72 1099
18.78 1103
18.84 1081
18.9 1041
18.96 960
19.02 1083
19.08 1174
19.14 1374
19.2 1251
19.26 1122
19.32 1123
19.38 1098
19.44 1167
19.5 1271
19.56 1276
19.62 1221
19.68 1232
19.74 1087
19.8 1198
19.86 1190
19.92 1341
19.98 1180
20 1203

File: 52-9.ASC
3 6005
3.06 4859
3.12 3743
3.18 2971
3.24 2307
3.3 1872
3.36 1483
3.42 1335
3.48 1361
3.54 1261
3.6 1169
3.66 1181
3.72 1117
3.78 1111
3.84 1135
3.9 1087
3.96 1052
4.02 1118
4.08 1052
4.14 1005
4.2 942
4.26 996
4.32 917
4.38 882
4.44 891
4.5 892
4.56 807
4.62 819
4.68 794
4.74 864
4.8 854
4.86 807
4.92 843
4.98 841
5.04 843
5.1 916
5.16 1010
5.22 1165
5.28 1211
5.34 1371
5.4 1850
5.46 2137
5.52 1410
5.58 1414
5.64 1516
5.7 1663
5.76 2006
5.82 1848
5.88 1105
5.94 854
6 814
6.06 759
6.12 714
6.18 728
6.24 759
6.3 770
6.36 813
6.42 774
6.48 740
6.54 761
6.6 800
6.66 793
6.72 797
6.78 818
6.84 766
6.9 702
6.96 698
7.02 738
7.08 707
7.14 746
7.2 722
7.26 667
7.32 715
7.38 712
7.44 683
7.5 731
7.56 677
7.62 754
7.68 681
7.74 724
7.8 747
7.86 760
7.92 713
7.98 726
8.04 756
8.1 755
8.16 698
8.22 757
8.28 719
8.34 725
8.4 719
8.46 775
8.52 737
8.58 743
8.64 736
8.7 718
8.76 744
8.82 779
8.88 755
8.94 723
9 785
9.06 810
9.12 862
9.18 889
9.24 940
9.3 1145
9.36 1490
9.42 919
9.48 782
9.54 795
9.6 764
9.66 812
9.72 740
9.78 774
9.84 803
9.9 763
9.96 783
10.02 828
10.08 849
10.14 859
10.2 910
10.26 849
10.32 775
10.38 793
10.44 779
10.5 775
10.56 802
10.62 864
10.68 870
10.74 914
10.8 1014
10.86 986
10.92 1029
10.98 1077
11.04 935
11.1 847
11.16 786
11.22 809
11.28 846
11.34 845
11.4 855
11.46 887
11.52 880
11.58 868
11.64 867
11.7 864
11.76 850
11.82 779
11.88 870
11.94 849
12 858
12.06 892
12.12 896
12.18 850
12.24 899
12.3 904
12.36 904
12.42 909
12.48 877
12.54 937
12.6 908
12.66 900
12.72 929
12.78 941
12.84 913
12.9 935
12.96 928
13.02 907
13.08 944
13.14 926
13.2 950
13.26 884
13.32 967
13.38 991
13.44 984
13.5 1039
13.56 989
13.62 960
13.68 971
13.74 959
13.8 1067
13.86 994
13.92 1093
13.98 984
14.04 1078
14.1 1075
14.16 1110
14.22 1075
14.28 1126
14.34 1107
14.4 1123
14.46 1105
14.52 1170
14.58 1107
14.64 1078
14.7 1222
14.76 1235
14.82 1182
14.88 1150
14.94 1168
15 1194
15.06 1193
15.12 1185
15.18 1223
15.24 1257
15.3 1216
15.36 1142
15.42 1282
15.48 1278
15.54 1320
15.6 1269
15.66 1331
15.72 1267
15.78 1357
15.84 1360
15.9 1353
15.96 1357
16.02 1371
16.08 1388
16.14 1491
16.2 1507
16.26 1442
16.32 1475
16.38 1510
16.44 1472
16.5 1512
16.56 1540
16.62 1546
16.68 1553
16.74 1624
16.8 1599
16.86 1717
16.92 1733
16.98 1992
17.04 2100
17.1 1839
17.16 1732
17.22 1738
17.28 1747
17.34 1724
17.4 1819
17.46 1822
17.52 1873
17.58 1827
17.64 1830
17.7 1934
17.76 1806
17.82 1960
17.88 1988
17.94 1939
18 1949
18.06 2017
18.12 1952
18.18 2097
18.24 2007
18.3 2118
18.36 2004
18.42 2085
18.48 2142
18.54 2220
18.6 2151
18.66 2212
18.72 2241
18.78 2255
18.84 2216
18.9 2284
18.96 2334
19.02 2337
19.08 2388
19.14 2513
19.2 2453
19.26 2388
19.32 2454
19.38 2412
19.44 2552
19.5 2439
19.56 2638
19.62 2563
19.68 2511
19.74 2477
19.8 2598
19.86 2537
19.92 2579
19.98 2590
20 2560

File: 52-10.ASC
3 6315
3.06 5177
3.12 4205
3.18 3412
3.24 2678
3.3 2082
3.36 1787
3.42 1629
3.48 1531
3.54 1463
3.6 1414
3.66 1440
3.72 1396
3.78 1398
3.84 1301
3.9 1383
3.96 1355
4.02 1374
4.08 1419
4.14 1350
4.2 1221
4.26 1052
4.32 1027
4.38 952
4.44 970
4.5 930
4.56 931
4.62 914
4.68 901
4.74 920
4.8 881
4.86 922
4.92 921
4.98 956
5.04 943
5.1 1045
5.16 1058
5.22 1142
5.28 1330
5.34 1494
5.4 1942
5.46 2032
5.52 1672
5.58 1792
5.64 2033
5.7 2624
5.76 3595
5.82 3659
5.88 1553
5.94 944
6 781
6.06 767
6.12 719
6.18 720
6.24 719
6.3 732
6.36 725
6.42 693
6.48 722
6.54 729
6.6 814
6.66 765
6.72 905
6.78 897
6.84 784
6.9 687
6.96 657
7.02 613
7.08 602
7.14 660
7.2 649
7.26 629
7.32 626
7.38 673
7.44 640
7.5 654
7.56 664
7.62 622
7.68 637
7.74 656
7.8 627
7.86 632
7.92 668
7.98 675
8.04 683
8.1 703
8.16 635
8.22 640
8.28 641
8.34 619
8.4 629
8.46 611
8.52 627
8.58 603
8.64 631
8.7 592
8.76 628
8.82 630
8.88 661
8.94 648
9 712
9.06 705
9.12 767
9.18 864
9.24 969
9.3 1188
9.36 1596
9.42 996
9.48 681
9.54 692
9.6 651
9.66 642
9.72 710
9.78 670
9.84 686
9.9 644
9.96 677
10.02 701
10.08 750
10.14 836
10.2 938
10.26 794
10.32 688
10.38 668
10.44 701
10.5 671
10.56 667
10.62 746
10.68 780
10.74 795
10.8 914
10.86 915
10.92 1030
10.98 1264
11.04 907
11.1 698
11.16 653
11.22 713
11.28 689
11.34 677
11.4 775
11.46 845
11.52 938
11.58 820
11.64 790
11.7 759
11.76 684
11.82 681
11.88 733
11.94 676
12 680
12.06 753
12.12 738
12.18 779
12.24 782
12.3 811
12.36 743
12.42 735
12.48 729
12.54 708
12.6 743
12.66 746
12.72 706
12.78 696
12.84 690
12.9 730
12.96 735
13.02 718
13.08 711
13.14 732
13.2 741
13.26 769
13.32 784
13.38 799
13.44 801
13.5 793
13.56 813
13.62 737
13.68 760
13.74 785
13.8 756
13.86 731
13.92 734
13.98 776
14.04 778
14.1 762
14.16 814
14.22 817
14.28 847
14.34 850
14.4 854
14.46 799
14.52 844
14.58 822
14.64 825
14.7 874
14.76 882
14.82 911
14.88 878
14.94 830
15 885
15.06 847
15.12 836
15.18 835
15.24 967
15.3 939
15.36 874
15.42 914
15.48 881
15.54 890
15.6 893
15.66 869
15.72 976
15.78 908
15.84 910
15.9 915
15.96 914
16.02 945
16.08 954
16.14 977
16.2 953
16.26 1045
16.32 1040
16.38 990
16.44 982
16.5 1021
16.56 1040
16.62 1068
16.68 1005
16.74 1079
16.8 1025
16.86 1078
16.92 1174
16.98 1338
17.04 1198
17.1 1104
17.16 1096
17.22 1092
17.28 1140
17.34 1124
17.4 1066
17.46 1154
17.52 1128
17.58 1149
17.64 1166
17.7 1119
17.76 1169
17.82 1202
17.88 1183
17.94 1153
18 1195
18.06 1120
18.12 1203
18.18 1163
18.24 1179
18.3 1265
18.36 1205
18.42 1283
18.48 1204
18.54 1224
18.6 1259
18.66 1355
18.72 1359
18.78 1351
18.84 1304
18.9 1360
18.96 1321
19.02 1345
19.08 1439
19.14 1514
19.2 1470
19.26 1359
19.32 1407
19.38 1494
19.44 1495
19.5 1464
19.56 1701
19.62 1518
19.68 1495
19.74 1396
19.8 1379
19.86 1475
19.92 1498
19.98 1418
20 1471

File: 52-11.ASC
3 6022
3.06 4939
3.12 3991
3.18 3148
3.24 2569
3.3 2061
3.36 1643
3.42 1517
3.48 1427
3.54 1405
3.6 1381
3.66 1293
3.72 1317
3.78 1238
3.84 1273
3.9 1241
3.96 1337
4.02 1280
4.08 1313
4.14 1197
4.2 1089
4.26 1022
4.32 975
4.38 936
4.44 925
4.5 906
4.56 944
4.62 877
4.68 900
4.74 890
4.8 911
4.86 944
4.92 994
4.98 963
5.04 985
5.1 1077
5.16 1081
5.22 1265
5.28 1438
5.34 1719
5.4 2103
5.46 2501
5.52 1926
5.58 1848
5.64 2081
5.7 2430
5.76 3079
5.82 3288
5.88 1762
5.94 1008
6 880
6.06 759
6.12 700
6.18 790
6.24 723
6.3 750
6.36 677
6.42 716
6.48 743
6.54 740
6.6 782
6.66 804
6.72 828
6.78 906
6.84 786
6.9 750
6.96 676
7.02 672
7.08 713
7.14 642
7.2 644
7.26 636
7.32 640
7.38 662
7.44 684
7.5 657
7.56 617
7.62 613
7.68 669
7.74 667
7.8 667
7.86 604
7.92 680
7.98 659
8.04 674
8.1 713
8.16 710
8.22 669
8.28 680
8.34 659
8.4 638
8.46 694
8.52 622
8.58 642
8.64 656
8.7 632
8.76 634
8.82 694
8.88 678
8.94 662
9 680
9.06 705
9.12 801
9.18 859
9.24 1045
9.3 1236
9.36 1678
9.42 1117
9.48 732
9.54 699
9.6 735
9.66 642
9.72 695
9.78 729
9.84 680
9.9 708
9.96 714
10.02 766
10.08 748
10.14 860
10.2 884
10.26 801
10.32 727
10.38 724
10.44 725
10.5 671
10.56 703
10.62 717
10.68 821
10.74 864
10.8 981
10.86 1029
10.92 1044
10.98 1237
11.04 926
11.1 758
11.16 771
11.22 750
11.28 697
11.34 739
11.4 800
11.46 831
11.52 825
11.58 824
11.64 734
11.7 745
11.76 725
11.82 689
11.88 740
11.94 712
12 731
12.06 726
12.12 761
12.18 780
12.24 769
12.3 847
12.36 828
12.42 778
12.48 782
12.54 717
12.6 772
12.66 703
12.72 734
12.78 704
12.84 718
12.9 737
12.96 755
13.02 773
13.08 794
13.14 741
13.2 755
13.26 844
13.32 812
13.38 837
13.44 839
13.5 827
13.56 821
13.62 831
13.68 863
13.74 823
13.8 843
13.86 802
13.92 827
13.98 811
14.04 842
14.1 889
14.16 914
14.22 907
14.28 866
14.34 835
14.4 914
14.46 871
14.52 842
14.58 906
14.64 925
14.7 921
14.76 981
14.82 1040
14.88 1015
14.94 997
15 979
15.06 981
15.12 965
15.18 982
15.24 999
15.3 1028
15.36 1027
15.42 1026
15.48 1009
15.54 1030
15.6 1049
15.66 999
15.72 1079
15.78 1111
15.84 1048
15.9 1116
15.96 1135
16.02 1091
16.08 1140
16.14 1120
16.2 1130
16.26 1162
16.32 1204
16.38 1166
16.44 1198
16.5 1182
16.56 1194
16.62 1271
16.68 1262
16.74 1312
16.8 1347
16.86 1478
16.92 1493
16.98 2065
17.04 2218
17.1 1591
17.16 1435
17.22 1379
17.28 1362
17.34 1409
17.4 1411
17.46 1414
17.52 1411
17.58 1437
17.64 1447
17.7 1447
17.76 1455
17.82 1486
17.88 1464
17.94 1494
18 1549
18.06 1562
18.12 1530
18.18 1542
18.24 1611
18.3 1634
18.36 1606
18.42 1631
18.48 1639
18.54 1657
18.6 1603
18.66 1784
18.72 1777
18.78 1753
18.84 1768
18.9 1799
18.96 1806
19.02 1842
19.08 1961
19.14 2026
19.2 1878
19.26 1861
19.32 1878
19.38 1894
19.44 1971
19.5 2172
19.56 2207
19.62 1989
19.68 1929
19.74 1897
19.8 1935
19.86 2007
19.92 2004
19.98 1943
20 1929

File: 52-12.ASC
3 5865
3.06 4689
3.12 3766
3.18 2928
3.24 2398
3.3 1799
3.36 1412
3.42 1312
3.48 1229
3.54 1125
3.6 1168
3.66 1126
3.72 1047
3.78 1059
3.84 1044
3.9 953
3.96 997
4.02 981
4.08 940
4.14 929
4.2 963
4.26 884
4.32 889
4.38 841
4.44 805
4.5 773
4.56 727
4.62 758
4.68 731
4.74 802
4.8 781
4.86 752
4.92 818
4.98 891
5.04 896
5.1 981
5.16 997
5.22 1148
5.28 1302
5.34 1580
5.4 2104
5.46 2641
5.52 1895
5.58 1633
5.64 1664
5.7 1819
5.76 1937
5.82 1864
5.88 1227
5.94 910
6 816
6.06 687
6.12 668
6.18 653
6.24 640
6.3 663
6.36 631
6.42 618
6.48 627
6.54 631
6.6 626
6.66 724
6.72 789
6.78 676
6.84 680
6.9 625
6.96 618
7.02 594
7.08 594
7.14 591
7.2 566
7.26 555
7.32 533
7.38 593
7.44 577
7.5 584
7.56 558
7.62 542
7.68 600
7.74 574
7.8 554
7.86 504
7.92 594
7.98 570
8.04 576
8.1 561
8.16 594
8.22 633
8.28 609
8.34 545
8.4 571
8.46 550
8.52 541
8.58 525
8.64 568
8.7 527
8.76 556
8.82 563
8.88 618
8.94 607
9 659
9.06 668
9.12 680
9.18 769
9.24 907
9.3 1064
9.36 1554
9.42 1088
9.48 707
9.54 616
9.6 602
9.66 598
9.72 575
9.78 568
9.84 602
9.9 637
9.96 617
10.02 651
10.08 590
10.14 665
10.2 716
10.26 690
10.32 685
10.38 624
10.44 583
10.5 600
10.56 604
10.62 648
10.68 694
10.74 809
10.8 954
10.86 938
10.92 925
10.98 977
11.04 849
11.1 683
11.16 620
11.22 593
11.28 611
11.34 587
11.4 649
11.46 631
11.52 662
11.58 710
11.64 645
11.7 623
11.76 597
11.82 573
11.88 641
11.94 588
12 627
12.06 619
12.12 614
12.18 674
12.24 670
12.3 651
12.36 649
12.42 584
12.48 656
12.54 604
12.6 593
12.66 646
12.72 595
12.78 614
12.84 645
12.9 661
12.96 626
13.02 642
13.08 676
13.14 637
13.2 624
13.26 670
13.32 682
13.38 656
13.44 649
13.5 670
13.56 722
13.62 698
13.68 623
13.74 675
13.8 677
13.86 655
13.92 646
13.98 658
14.04 659
14.1 670
14.16 756
14.22 761
14.28 790
14.34 758
14.4 720
14.46 709
14.52 757
14.58 703
14.64 713
14.7 767
14.76 750
14.82 762
14.88 803
14.94 736
15 743
15.06 757
15.12 777
15.18 775
15.24 742
15.3 733
15.36 816
15.42 760
15.48 796
15.54 791
15.6 804
15.66 811
15.72 761
15.78 839
15.84 857
15.9 824
15.96 846
16.02 871
16.08 870
16.14 861
16.2 893
16.26 864
16.32 893
16.38 916
16.44 890
16.5 847
16.56 943
16.62 993
16.68 935
16.74 960
16.8 988
16.86 953
16.92 1027
16.98 1147
17.04 1194
17.1 1085
17.16 1006
17.22 976
17.28 1010
17.34 1025
17.4 1046
17.46 1052
17.52 1008
17.58 1039
17.64 1073
17.7 1134
17.76 1121
17.82 1113
17.88 1098
17.94 1143
18 1138
18.06 1102
18.12 1168
18.18 1166
18.24 1173
18.3 1169
18.36 1157
18.42 1214
18.48 1237
18.54 1235
18.6 1238
18.66 1271
18.72 1290
18.78 1321
18.84 1379
18.9 1292
18.96 1326
19.02 1328
19.08 1396
19.14 1428
19.2 1407
19.26 1360
19.32 1381
19.38 1392
19.44 1538
19.5 1654
19.56 1549
19.62 1563
19.68 1507
19.74 1401
19.8 1493
19.86 1485
19.92 1513
19.98 1462
20 1486

File: 53-3.ASC
3 1630
3.06 1430
3.12 1350
3.18 1256
3.24 1277
3.3 1257
3.36 1151
3.42 1186
3.48 1140
3.54 1111
3.6 1110
3.66 1052
3.72 1039
3.78 1070
3.84 1078
3.9 945
3.96 958
4.02 1022
4.08 1025
4.14 1014
4.2 946
4.26 951
4.32 926
4.38 885
4.44 882
4.5 847
4.56 837
4.62 834
4.68 883
4.74 824
4.8 849
4.86 890
4.92 889
4.98 885
5.04 980
5.1 1003
5.16 969
5.22 1071
5.28 1150
5.34 1271
5.4 1359
5.46 1604
5.52 1559
5.58 1512
5.64 1565
5.7 1686
5.76 1832
5.82 2195
5.88 1750
5.94 1157
6 951
6.06 894
6.12 774
6.18 760
6.24 740
6.3 710
6.36 682
6.42 682
6.48 695
6.54 739
6.6 705
6.66 736
6.72 690
6.78 777
6.84 726
6.9 699
6.96 657
7.02 603
7.08 598
7.14 662
7.2 561
7.26 604
7.32 612
7.38 564
7.44 584
7.5 613
7.56 575
7.62 587
7.68 603
7.74 620
7.8 542
7.86 562
7.92 566
7.98 610
8.04 661
8.1 587
8.16 610
8.22 631
8.28 630
8.34 582
8.4 610
8.46 608
8.52 574
8.58 590
8.64 595
8.7 574
8.76 588
8.82 605
8.88 668
8.94 637
9 679
9.06 659
9.12 689
9.18 756
9.24 763
9.3 860
9.36 1075
9.42 1138
9.48 814
9.54 698
9.6 692
9.66 669
9.72 688
9.78 710
9.84 644
9.9 666
9.96 661
10.02 677
10.08 673
10.14 744
10.2 750
10.26 759
10.32 732
10.38 663
10.44 634
10.5 692
10.56 685
10.62 690
10.68 676
10.74 728
10.8 753
10.86 780
10.92 845
10.98 866
11.04 934
11.1 793
11.16 691
11.22 645
11.28 674
11.34 685
11.4 675
11.46 715
11.52 724
11.58 737
11.64 682
11.7 674
11.76 648
11.82 640
11.88 643
11.94 661
12 655
12.06 654
12.12 635
12.18 662
12.24 662
12.3 689
12.36 646
12.42 664
12.48 639
12.54 633
12.6 588
12.66 619
12.72 653
12.78 660
12.84 610
12.9 623
12.96 646
13.02 676
13.08 641
13.14 647
13.2 657
13.26 674
13.32 705
13.38 680
13.44 659
13.5 725
13.56 669
13.62 708
13.68 704
13.74 677
13.8 666
13.86 721
13.92 678
13.98 698
14.04 708
14.1 731
14.16 769
14.22 712
14.28 751
14.34 735
14.4 753
14.46 864
14.52 770
14.58 795
14.64 720
14.7 790
14.76 802
14.82 785
14.88 799
14.94 831
15 816
15.06 847
15.12 855
15.18 881
15.24 833
15.3 843
15.36 841
15.42 887
15.48 858
15.54 861
15.6 887
15.66 906
15.72 892
15.78 913
15.84 888
15.9 908
15.96 882
16.02 892
16.08 943
16.14 938
16.2 998
16.26 977
16.32 996
16.38 974
16.44 1027
16.5 1007
16.56 996
16.62 1001
16.68 1061
16.74 1052
16.8 1071
16.86 1049
16.92 1185
16.98 1230
17.04 1254
17.1 1130
17.16 1117
17.22 1153
17.28 1147
17.34 1192
17.4 1198
17.46 1188
17.52 1137
17.58 1227
17.64 1217
17.7 1195
17.76 1246
17.82 1251
17.88 1284
17.94 1236
18 1299
18.06 1327
18.12 1321
18.18 1294
18.24 1382
18.3 1308
18.36 1397
18.42 1311
18.48 1334
18.54 1386
18.6 1381
18.66 1436
18.72 1430
18.78 1488
18.84 1534
18.9 1510
18.96 1476
19.02 1533
19.08 1597
19.14 1596
19.2 1679
19.26 1635
19.32 1566
19.38 1538
19.44 1682
19.5 1674
19.56 1768
19.62 1687
19.68 1723
19.74 1711
19.8 1606
19.86 1789
19.92 1650
19.98 1741
20 1727