Folder: CPC-code/xrd-UiO-67/pxrddata (part 17)

File: 38-4.ASC
3 3517
3.06 3039
3.12 2658
3.18 2563
3.24 2407
3.3 2401
3.36 2167
3.42 1987
3.48 2001
3.54 1941
3.6 1839
3.66 1805
3.72 1717
3.78 1567
3.84 1554
3.9 1457
3.96 1453
4.02 1389
4.08 1290
4.14 1278
4.2 1259
4.26 1158
4.32 1118
4.38 1089
4.44 1074
4.5 1020
4.56 1037
4.62 1002
4.68 1003
4.74 913
4.8 915
4.86 927
4.92 838
4.98 846
5.04 828
5.1 841
5.16 831
5.22 823
5.28 847
5.34 789
5.4 757
5.46 748
5.52 713
5.58 726
5.64 757
5.7 716
5.76 711
5.82 697
5.88 671
5.94 703
6 731
6.06 675
6.12 651
6.18 660
6.24 658
6.3 686
6.36 649
6.42 657
6.48 627
6.54 628
6.6 620
6.66 594
6.72 684
6.78 638
6.84 650
6.9 633
6.96 593
7.02 621
7.08 532
7.14 617
7.2 632
7.26 677
7.32 575
7.38 598
7.44 621
7.5 582
7.56 604
7.62 602
7.68 638
7.74 595
7.8 547
7.86 627
7.92 621
7.98 553
8.04 545
8.1 570
8.16 562
8.22 595
8.28 625
8.34 607
8.4 558
8.46 636
8.52 596
8.58 696
8.64 738
8.7 794
8.76 916
8.82 1089
8.88 1412
8.94 2016
9 2707
9.06 1610
9.12 802
9.18 718
9.24 673
9.3 659
9.36 659
9.42 583
9.48 612
9.54 642
9.6 663
9.66 751
9.72 780
9.78 903
9.84 1123
9.9 1499
9.96 2376
10.02 1187
10.08 678
10.14 615
10.2 576
10.26 502
10.32 574
10.38 559
10.44 523
10.5 530
10.56 533
10.62 512
10.68 507
10.74 506
10.8 558
10.86 532
10.92 521
10.98 496
11.04 505
11.1 514
11.16 495
11.22 552
11.28 518
11.34 522
11.4 546
11.46 503
11.52 504
11.58 556
11.64 506
11.7 550
11.76 483
11.82 531
11.88 477
11.94 527
12 547
12.06 524
12.12 534
12.18 512
12.24 542
12.3 525
12.36 540
12.42 530
12.48 568
12.54 643
12.6 677
12.66 749
12.72 782
12.78 677
12.84 592
12.9 556
12.96 540
13.02 553
13.08 568
13.14 597
13.2 650
13.26 682
13.32 827
13.38 1028
13.44 1063
13.5 672
13.56 583
13.62 521
13.68 552
13.74 536
13.8 574
13.86 547
13.92 540
13.98 553
14.04 555
14.1 581
14.16 592
14.22 571
14.28 556
14.34 528
14.4 561
14.46 544
14.52 577
14.58 568
14.64 603
14.7 554
14.76 533
14.82 572
14.88 580
14.94 570
15 580
15.06 600
15.12 604
15.18 581
15.24 592
15.3 573
15.36 621
15.42 576
15.48 608
15.54 635
15.6 612
15.66 593
15.72 602
15.78 589
15.84 618
15.9 629
15.96 601
16.02 593
16.08 671
16.14 613
16.2 653
16.26 638
16.32 635
16.38 646
16.44 615
16.5 684
16.56 692
16.62 649
16.68 725
16.74 736
16.8 701
16.86 755
16.92 916
16.98 1101
17.04 1146
17.1 787
17.16 711
17.22 724
17.28 668
17.34 669
17.4 729
17.46 704
17.52 757
17.58 759
17.64 757
17.7 761
17.76 804
17.82 795
17.88 777
17.94 782
18 817
18.06 811
18.12 785
18.18 819
18.24 845
18.3 841
18.36 863
18.42 873
18.48 906
18.54 835
18.6 845
18.66 906
18.72 846
18.78 880
18.84 863
18.9 845
18.96 839
19.02 869
19.08 863
19.14 958
19.2 878
19.26 877
19.32 866
19.38 905
19.44 935
19.5 931
19.56 955
19.62 885
19.68 997
19.74 1002
19.8 1035
19.86 1136
19.92 1330
19.98 1265
20 1211

File: 38-6.ASC
3 3108
3.06 2822
3.12 2526
3.18 2359
3.24 2292
3.3 2172
3.36 2202
3.42 2017
3.48 2017
3.54 1989
3.6 1900
3.66 1797
3.72 1816
3.78 1781
3.84 1673
3.9 1643
3.96 1586
4.02 1510
4.08 1556
4.14 1453
4.2 1470
4.26 1526
4.32 1388
4.38 1369
4.44 1397
4.5 1341
4.56 1284
4.62 1262
4.68 1336
4.74 1347
4.8 1277
4.86 1355
4.92 1353
4.98 1427
5.04 1428
5.1 1515
5.16 1598
5.22 1760
5.28 1920
5.34 2182
5.4 2963
5.46 2892
5.52 1817
5.58 1603
5.64 1367
5.7 1319
5.76 1271
5.82 1127
5.88 1052
5.94 960
6 917
6.06 892
6.12 843
6.18 821
6.24 803
6.3 827
6.36 836
6.42 790
6.48 788
6.54 811
6.6 737
6.66 771
6.72 717
6.78 711
6.84 660
6.9 670
6.96 747
7.02 682
7.08 731
7.14 670
7.2 697
7.26 626
7.32 678
7.38 666
7.44 645
7.5 663
7.56 663
7.62 633
7.68 679
7.74 637
7.8 648
7.86 661
7.92 623
7.98 633
8.04 659
8.1 652
8.16 665
8.22 683
8.28 678
8.34 664
8.4 623
8.46 659
8.52 708
8.58 819
8.64 862
8.7 893
8.76 1082
8.82 1289
8.88 1867
8.94 2981
9 2678
9.06 1315
9.12 848
9.18 826
9.24 915
9.3 1088
9.36 1322
9.42 842
9.48 683
9.54 695
9.6 703
9.66 707
9.72 769
9.78 794
9.84 883
9.9 1187
9.96 1572
10.02 792
10.08 618
10.14 577
10.2 606
10.26 609
10.32 579
10.38 565
10.44 579
10.5 582
10.56 626
10.62 599
10.68 644
10.74 757
10.8 847
10.86 754
10.92 695
10.98 636
11.04 578
11.1 576
11.16 494
11.22 548
11.28 543
11.34 541
11.4 532
11.46 552
11.52 505
11.58 565
11.64 473
11.7 522
11.76 523
11.82 533
11.88 495
11.94 530
12 514
12.06 544
12.12 581
12.18 547
12.24 624
12.3 609
12.36 580
12.42 572
12.48 561
12.54 603
12.6 616
12.66 714
12.72 671
12.78 583
12.84 549
12.9 560
12.96 540
13.02 537
13.08 477
13.14 560
13.2 570
13.26 609
13.32 670
13.38 844
13.44 832
13.5 663
13.56 571
13.62 527
13.68 532
13.74 581
13.8 517
13.86 544
13.92 517
13.98 500
14.04 535
14.1 546
14.16 503
14.22 529
14.28 576
14.34 533
14.4 520
14.46 536
14.52 522
14.58 516
14.64 489
14.7 520
14.76 508
14.82 500
14.88 535
14.94 539
15 544
15.06 511
15.12 540
15.18 555
15.24 564
15.3 546
15.36 564
15.42 575
15.48 516
15.54 524
15.6 543
15.66 565
15.72 519
15.78 584
15.84 560
15.9 554
15.96 563
16.02 578
16.08 571
16.14 597
16.2 557
16.26 620
16.32 582
16.38 575
16.44 559
16.5 594
16.56 529
16.62 578
16.68 583
16.74 583
16.8 635
16.86 596
16.92 742
16.98 829
17.04 788
17.1 614
17.16 646
17.22 650
17.28 617
17.34 657
17.4 626
17.46 613
17.52 632
17.58 624
17.64 683
17.7 654
17.76 708
17.82 665
17.88 691
17.94 723
18 700
18.06 698
18.12 659
18.18 657
18.24 686
18.3 694
18.36 756
18.42 707
18.48 750
18.54 680
18.6 716
18.66 751
18.72 760
18.78 727
18.84 751
18.9 764
18.96 695
19.02 713
19.08 754
19.14 750
19.2 770
19.26 776
19.32 776
19.38 839
19.44 863
19.5 937
19.56 875
19.62 862
19.68 845
19.74 790
19.8 825
19.86 964
19.92 1112
19.98 940
20 894

File: 38-7.ASC
3 2760
3.06 2305
3.12 2077
3.18 1926
3.24 1828
3.3 1807
3.36 1774
3.42 1627
3.48 1522
3.54 1588
3.6 1507
3.66 1402
3.72 1398
3.78 1370
3.84 1295
3.9 1231
3.96 1230
4.02 1196
4.08 1161
4.14 1105
4.2 1093
4.26 1023
4.32 1064
4.38 999
4.44 990
4.5 1033
4.56 950
4.62 969
4.68 955
4.74 935
4.8 913
4.86 931
4.92 845
4.98 963
5.04 965
5.1 977
5.16 994
5.22 1075
5.28 1147
5.34 1287
5.4 1514
5.46 1668
5.52 1747
5.58 1651
5.64 1344
5.7 1134
5.76 953
5.82 854
5.88 791
5.94 840
6 792
6.06 710
6.12 723
6.18 677
6.24 692
6.3 694
6.36 643
6.42 649
6.48 689
6.54 634
6.6 640
6.66 607
6.72 638
6.78 604
6.84 566
6.9 637
6.96 600
7.02 624
7.08 645
7.14 570
7.2 571
7.26 569
7.32 596
7.38 573
7.44 589
7.5 518
7.56 581
7.62 553
7.68 548
7.74 544
7.8 578
7.86 585
7.92 559
7.98 549
8.04 563
8.1 535
8.16 554
8.22 566
8.28 569
8.34 544
8.4 538
8.46 538
8.52 513
8.58 559
8.64 547
8.7 515
8.76 524
8.82 534
8.88 530
8.94 540
9 570
9.06 558
9.12 568
9.18 574
9.24 621
9.3 680
9.36 760
9.42 751
9.48 729
9.54 647
9.6 594
9.66 576
9.72 535
9.78 480
9.84 515
9.9 550
9.96 521
10.02 504
10.08 538
10.14 521
10.2 507
10.26 542
10.32 519
10.38 454
10.44 497
10.5 514
10.56 497
10.62 522
10.68 501
10.74 510
10.8 566
10.86 618
10.92 618
10.98 547
11.04 557
11.1 487
11.16 507
11.22 486
11.28 485
11.34 513
11.4 430
11.46 447
11.52 498
11.58 433
11.64 435
11.7 460
11.76 442
11.82 427
11.88 445
11.94 464
12 464
12.06 471
12.12 471
12.18 518
12.24 507
12.3 522
12.36 500
12.42 466
12.48 489
12.54 460
12.6 475
12.66 524
12.72 448
12.78 481
12.84 493
12.9 465
12.96 532
13.02 479
13.08 518
13.14 483
13.2 493
13.26 491
13.32 483
13.38 461
13.44 506
13.5 474
13.56 521
13.62 469
13.68 505
13.74 484
13.8 476
13.86 543
13.92 495
13.98 488
14.04 516
14.1 534
14.16 500
14.22 503
14.28 500
14.34 499
14.4 481
14.46 534
14.52 524
14.58 541
14.64 517
14.7 523
14.76 500
14.82 542
14.88 514
14.94 528
15 531
15.06 529
15.12 535
15.18 560
15.24 537
15.3 522
15.36 519
15.42 511
15.48 572
15.54 566
15.6 558
15.66 534
15.72 558
15.78 559
15.84 566
15.9 585
15.96 588
16.02 561
16.08 580
16.14 573
16.2 628
16.26 601
16.32 588
16.38 614
16.44 617
16.5 639
16.56 600
16.62 614
16.68 657
16.74 617
16.8 621
16.86 645
16.92 736
16.98 732
17.04 788
17.1 759
17.16 731
17.22 681
17.28 705
17.34 733
17.4 650
17.46 695
17.52 657
17.58 666
17.64 714
17.7 690
17.76 692
17.82 703
17.88 683
17.94 694
18 711
18.06 733
18.12 755
18.18 781
18.24 722
18.3 790
18.36 793
18.42 747
18.48 798
18.54 762
18.6 817
18.66 836
18.72 787
18.78 799
18.84 856
18.9 842
18.96 798
19.02 813
19.08 838
19.14 853
19.2 849
19.26 824
19.32 922
19.38 927
19.44 918
19.5 1008
19.56 1006
19.62 913
19.68 979
19.74 916
19.8 950
19.86 880
19.92 937
19.98 909
20 964

File: 38-8.ASC
3 3281
3.06 2678
3.12 2360
3.18 2176
3.24 2185
3.3 2057
3.36 1997
3.42 1895
3.48 1779
3.54 1655
3.6 1661
3.66 1590
3.72 1534
3.78 1539
3.84 1452
3.9 1427
3.96 1425
4.02 1352
4.08 1299
4.14 1270
4.2 1177
4.26 1191
4.32 1152
4.38 1069
4.44 1036
4.5 1004
4.56 1015
4.62 1010
4.68 982
4.74 978
4.8 930
4.86 928
4.92 916
4.98 887
5.04 900
5.1 848
5.16 814
5.22 813
5.28 759
5.34 874
5.4 796
5.46 770
5.52 793
5.58 743
5.64 725
5.7 765
5.76 726
5.82 718
5.88 748
5.94 793
6 729
6.06 766
6.12 709
6.18 754
6.24 713
6.3 672
6.36 731
6.42 721
6.48 742
6.54 732
6.6 692
6.66 698
6.72 705
6.78 696
6.84 682
6.9 687
6.96 716
7.02 667
7.08 672
7.14 677
7.2 648
7.26 656
7.32 640
7.38 684
7.44 626
7.5 644
7.56 651
7.62 636
7.68 677
7.74 682
7.8 658
7.86 662
7.92 722
7.98 654
8.04 681
8.1 627
8.16 625
8.22 680
8.28 667
8.34 630
8.4 653
8.46 663
8.52 666
8.58 655
8.64 660
8.7 666
8.76 637
8.82 661
8.88 689
8.94 720
9 668
9.06 644
9.12 606
9.18 629
9.24 586
9.3 578
9.36 562
9.42 613
9.48 611
9.54 574
9.6 578
9.66 631
9.72 613
9.78 592
9.84 609
9.9 624
9.96 625
10.02 621
10.08 602
10.14 557
10.2 605
10.26 641
10.32 632
10.38 568
10.44 638
10.5 569
10.56 605
10.62 553
10.68 574
10.74 581
10.8 594
10.86 592
10.92 587
10.98 585
11.04 620
11.1 592
11.16 572
11.22 571
11.28 578
11.34 608
11.4 596
11.46 575
11.52 579
11.58 591
11.64 542
11.7 541
11.76 603
11.82 616
11.88 643
11.94 614
12 577
12.06 558
12.12 608
12.18 581
12.24 602
12.3 594
12.36 591
12.42 648
12.48 570
12.54 607
12.6 624
12.66 630
12.72 607
12.78 659
12.84 614
12.9 616
12.96 641
13.02 616
13.08 609
13.14 623
13.2 632
13.26 632
13.32 634
13.38 652
13.44 645
13.5 680
13.56 632
13.62 693
13.68 649
13.74 625
13.8 609
13.86 649
13.92 640
13.98 666
14.04 719
14.1 670
14.16 678
14.22 731
14.28 650
14.34 653
14.4 695
14.46 668
14.52 701
14.58 727
14.64 720
14.7 741
14.76 707
14.82 728
14.88 766
14.94 705
15 692
15.06 733
15.12 706
15.18 776
15.24 766
15.3 756
15.36 721
15.42 787
15.48 761
15.54 758
15.6 781
15.66 735
15.72 807
15.78 818
15.84 755
15.9 802
15.96 809
16.02 810
16.08 843
16.14 785
16.2 792
16.26 853
16.32 836
16.38 872
16.44 840
16.5 893
16.56 878
16.62 929
16.68 944
16.74 889
16.8 971
16.86 1040
16.92 1146
16.98 1382
17.04 1243
17.1 1040
17.16 971
17.22 978
17.28 1018
17.34 963
17.4 989
17.46 1019
17.52 1026
17.58 992
17.64 1033
17.7 1011
17.76 1039
17.82 1045
17.88 1101
17.94 1095
18 1103
18.06 1122
18.12 1084
18.18 1068
18.24 1128
18.3 1110
18.36 1163
18.42 1136
18.48 1119
18.54 1150
18.6 1157
18.66 1197
18.72 1217
18.78 1215
18.84 1186
18.9 1203
18.96 1267
19.02 1221
19.08 1254
19.14 1232
19.2 1329
19.26 1286
19.32 1287
19.38 1318
19.44 1349
19.5 1341
19.56 1379
19.62 1347
19.68 1322
19.74 1410
19.8 1366
19.86 1416
19.92 1389
19.98 1404
20 1411

File: 38-9.ASC
3 3243
3.06 2840
3.12 2474
3.18 2372
3.24 2232
3.3 2140
3.36 1996
3.42 1948
3.48 1909
3.54 1808
3.6 1800
3.66 1654
3.72 1647
3.78 1527
3.84 1501
3.9 1438
3.96 1404
4.02 1392
4.08 1260
4.14 1252
4.2 1228
4.26 1221
4.32 1204
4.38 1197
4.44 1146
4.5 1138
4.56 1047
4.62 1044
4.68 1062
4.74 954
4.8 1055
4.86 929
4.92 988
4.98 893
5.04 911
5.1 927
5.16 879
5.22 792
5.28 823
5.34 835
5.4 812
5.46 767
5.52 753
5.58 761
5.64 725
5.7 761
5.76 767
5.82 758
5.88 700
5.94 749
6 702
6.06 707
6.12 722
6.18 638
6.24 632
6.3 699
6.36 650
6.42 683
6.48 685
6.54 679
6.6 645
6.66 675
6.72 694
6.78 625
6.84 627
6.9 618
6.96 631
7.02 556
7.08 599
7.14 643
7.2 606
7.26 641
7.32 612
7.38 609
7.44 633
7.5 598
7.56 557
7.62 597
7.68 536
7.74 599
7.8 549
7.86 622
7.92 571
7.98 583
8.04 543
8.1 627
8.16 590
8.22 574
8.28 611
8.34 564
8.4 591
8.46 594
8.52 611
8.58 676
8.64 728
8.7 787
8.76 847
8.82 1164
8.88 1451
8.94 2451
9 4134
9.06 1298
9.12 714
9.18 617
9.24 593
9.3 590
9.36 578
9.42 566
9.48 565
9.54 606
9.6 620
9.66 615
9.72 722
9.78 740
9.84 841
9.9 1231
9.96 1417
10.02 552
10.08 529
10.14 516
10.2 512
10.26 485
10.32 512
10.38 454
10.44 459
10.5 494
10.56 492
10.62 476
10.68 458
10.74 475
10.8 500
10.86 486
10.92 475
10.98 489
11.04 482
11.1 467
11.16 502
11.22 492
11.28 447
11.34 440
11.4 472
11.46 463
11.52 452
11.58 491
11.64 434
11.7 427
11.76 452
11.82 478
11.88 429
11.94 496
12 451
12.06 515
12.12 452
12.18 524
12.24 474
12.3 453
12.36 491
12.42 503
12.48 509
12.54 522
12.6 591
12.66 599
12.72 659
12.78 530
12.84 479
12.9 502
12.96 490
13.02 471
13.08 492
13.14 506
13.2 527
13.26 580
13.32 670
13.38 822
13.44 699
13.5 575
13.56 487
13.62 465
13.68 475
13.74 462
13.8 497
13.86 483
13.92 442
13.98 496
14.04 472
14.1 465
14.16 511
14.22 522
14.28 492
14.34 499
14.4 502
14.46 487
14.52 502
14.58 505
14.64 468
14.7 502
14.76 504
14.82 518
14.88 501
14.94 449
15 504
15.06 510
15.12 499
15.18 513
15.24 516
15.3 547
15.36 546
15.42 524
15.48 521
15.54 551
15.6 555
15.66 537
15.72 552
15.78 517
15.84 543
15.9 572
15.96 528
16.02 560
16.08 526
16.14 552
16.2 557
16.26 579
16.32 574
16.38 600
16.44 545
16.5 592
16.56 595
16.62 620
16.68 593
16.74 649
16.8 732
16.86 853
16.92 1056
16.98 1278
17.04 1021
17.1 699
17.16 633
17.22 633
17.28 584
17.34 628
17.4 637
17.46 620
17.52 637
17.58 668
17.64 647
17.7 645
17.76 679
17.82 660
17.88 702
17.94 679
18 769
18.06 691
18.12 668
18.18 691
18.24 658
18.3 693
18.36 677
18.42 714
18.48 781
18.54 755
18.6 707
18.66 736
18.72 710
18.78 706
18.84 695
18.9 712
18.96 740
19.02 737
19.08 739
19.14 773
19.2 780
19.26 762
19.32 727
19.38 815
19.44 782
19.5 778
19.56 796
19.62 812
19.68 795
19.74 820
19.8 866
19.86 900
19.92 1023
19.98 955
20 897

File: 38-21.ASC
3 3192
3.06 2691
3.12 2442
3.18 2378
3.24 2244
3.3 2043
3.36 2045
3.42 1968
3.48 1917
3.54 1804
3.6 1751
3.66 1654
3.72 1692
3.78 1614
3.84 1556
3.9 1505
3.96 1421
4.02 1426
4.08 1351
4.14 1336
4.2 1255
4.26 1300
4.32 1311
4.38 1223
4.44 1227
4.5 1188
4.56 1215
4.62 1148
4.68 1169
4.74 1122
4.8 1142
4.86 1131
4.92 1174
4.98 1141
5.04 1165
5.1 1199
5.16 1321
5.22 1279
5.28 1431
5.34 1482
5.4 1700
5.46 2015
5.52 2441
5.58 3307
5.64 4391
5.7 7749
5.76 19468
5.82 1578
5.88 1340
5.94 1045
6 1057
6.06 979
6.12 974
6.18 988
6.24 1050
6.3 1070
6.36 1224
6.42 1386
6.48 1587
6.54 1977
6.6 3490
6.66 1997
6.72 851
6.78 793
6.84 723
6.9 706
6.96 757
7.02 715
7.08 667
7.14 681
7.2 626
7.26 657
7.32 655
7.38 654
7.44 639
7.5 607
7.56 664
7.62 603
7.68 610
7.74 632
7.8 613
7.86 623
7.92 631
7.98 594
8.04 567
8.1 588
8.16 593
8.22 590
8.28 568
8.34 557
8.4 598
8.46 567
8.52 598
8.58 550
8.64 548
8.7 592
8.76 627
8.82 579
8.88 621
8.94 644
9 722
9.06 724
9.12 868
9.18 1061
9.24 1287
9.3 2092
9.36 4445
9.42 738
9.48 614
9.54 622
9.6 578
9.66 566
9.72 587
9.78 538
9.84 558
9.9 586
9.96 540
10.02 567
10.08 528
10.14 527
10.2 591
10.26 581
10.32 578
10.38 581
10.44 553
10.5 553
10.56 563
10.62 571
10.68 669
10.74 757
10.8 914
10.86 1084
10.92 1790
10.98 2791
11.04 643
11.1 631
11.16 617
11.22 671
11.28 733
11.34 868
11.4 1332
11.46 3007
11.52 744
11.58 517
11.64 554
11.7 536
11.76 523
11.82 537
11.88 533
11.94 552
12 536
12.06 559
12.12 535
12.18 559
12.24 535
12.3 518
12.36 524
12.42 530
12.48 520
12.54 536
12.6 542
12.66 528
12.72 520
12.78 484
12.84 491
12.9 544
12.96 586
13.02 569
13.08 604
13.14 674
13.2 858
13.26 755
13.32 550
13.38 520
13.44 539
13.5 533
13.56 561
13.62 553
13.68 571
13.74 547
13.8 565
13.86 570
13.92 579
13.98 556
14.04 519
14.1 614
14.16 568
14.22 620
14.28 659
14.34 723
14.4 944
14.46 811
14.52 577
14.58 593
14.64 627
14.7 655
14.76 621
14.82 563
14.88 557
14.94 632
15 591
15.06 623
15.12 607
15.18 644
15.24 600
15.3 600
15.36 606
15.42 633
15.48 639
15.54 640
15.6 634
15.66 639
15.72 623
15.78 643
15.84 623
15.9 613
15.96 619
16.02 636
16.08 644
16.14 658
16.2 638
16.26 643
16.32 678
16.38 643
16.44 702
16.5 705
16.56 683
16.62 674
16.68 699
16.74 707
16.8 652
16.86 691
16.92 761
16.98 795
17.04 795
17.1 837
17.16 985
17.22 972
17.28 776
17.34 812
17.4 747
17.46 781
17.52 784
17.58 753
17.64 798
17.7 752
17.76 754
17.82 783
17.88 777
17.94 788
18 792
18.06 802
18.12 748
18.18 794
18.24 839
18.3 795
18.36 865
18.42 860
18.48 856
18.54 860
18.6 856
18.66 858
18.72 946
18.78 883
18.84 866
18.9 942
18.96 917
19.02 868
19.08 919
19.14 895
19.2 1019
19.26 927
19.32 956
19.38 980
19.44 1083
19.5 1290
19.56 1978
19.62 1665
19.68 1093
19.74 1275
19.8 1614
19.86 2873
19.92 1833
19.98 1062
20 1005

File: 38-22.ASC
3 2189
3.06 1876
3.12 1591
3.18 1515
3.24 1533
3.3 1420
3.36 1393
3.42 1370
3.48 1311
3.54 1243
3.6 1237
3.66 1258
3.72 1217
3.78 1161
3.84 1078
3.9 1142
3.96 1059
4.02 997
4.08 963
4.14 998
4.2 986
4.26 953
4.32 915
4.38 935
4.44 864
4.5 851
4.56 814
4.62 839
4.68 858
4.74 793
4.8 771
4.86 796
4.92 821
4.98 793
5.04 807
5.1 862
5.16 860
5.22 980
5.28 1092
5.34 1214
5.4 1426
5.46 1841
5.52 2219
5.58 1546
5.64 1119
5.7 1091
5.76 1002
5.82 1064
5.88 951
5.94 806
6 724
6.06 710
6.12 648
6.18 613
6.24 598
6.3 635
6.36 573
6.42 632
6.48 555
6.54 600
6.6 584
6.66 584
6.72 614
6.78 594
6.84 585
6.9 586
6.96 562
7.02 562
7.08 600
7.14 541
7.2 525
7.26 574
7.32 568
7.38 541
7.44 533
7.5 537
7.56 541
7.62 588
7.68 504
7.74 561
7.8 546
7.86 535
7.92 567
7.98 546
8.04 514
8.1 550
8.16 533
8.22 539
8.28 513
8.34 517
8.4 558
8.46 561
8.52 504
8.58 542
8.64 500
8.7 519
8.76 514
8.82 529
8.88 549
8.94 573
9 481
9.06 533
9.12 601
9.18 607
9.24 618
9.3 719
9.36 842
9.42 1024
9.48 847
9.54 583
9.6 522
9.66 514
9.72 520
9.78 549
9.84 541
9.9 515
9.96 524
10.02 519
10.08 555
10.14 549
10.2 545
10.26 546
10.32 518
10.38 537
10.44 548
10.5 490
10.56 572
10.62 569
10.68 550
10.74 643
10.8 698
10.86 738
10.92 714
10.98 663
11.04 581
11.1 603
11.16 530
11.22 527
11.28 501
11.34 513
11.4 480
11.46 498
11.52 465
11.58 519
11.64 515
11.7 553
11.76 513
11.82 470
11.88 513
11.94 501
12 501
12.06 547
12.12 525
12.18 552
12.24 532
12.3 560
12.36 512
12.42 519
12.48 520
12.54 514
12.6 508
12.66 511
12.72 495
12.78 531
12.84 561
12.9 535
12.96 510
13.02 524
13.08 535
13.14 558
13.2 544
13.26 568
13.32 560
13.38 538
13.44 562
13.5 586
13.56 613
13.62 575
13.68 606
13.74 590
13.8 550
13.86 559
13.92 572
13.98 534
14.04 566
14.1 621
14.16 618
14.22 617
14.28 630
14.34 601
14.4 665
14.46 677
14.52 592
14.58 652
14.64 626
14.7 609
14.76 678
14.82 601
14.88 684
14.94 641
15 661
15.06 620
15.12 628
15.18 666
15.24 659
15.3 657
15.36 688
15.42 686
15.48 658
15.54 726
15.6 704
15.66 650
15.72 695
15.78 628
15.84 681
15.9 694
15.96 681
16.02 754
16.08 748
16.14 748
16.2 761
16.26 740
16.32 816
16.38 770
16.44 800
16.5 816
16.56 759
16.62 718
16.68 786
16.74 759
16.8 769
16.86 805
16.92 892
16.98 872
17.04 1057
17.1 1143
17.16 1014
17.22 861
17.28 928
17.34 943
17.4 933
17.46 918
17.52 962
17.58 863
17.64 906
17.7 927
17.76 903
17.82 1011
17.88 958
17.94 992
18 990
18.06 1016
18.12 987
18.18 1047
18.24 1030
18.3 1077
18.36 1003
18.42 1039
18.48 1026
18.54 1053
18.6 1082
18.66 1111
18.72 1149
18.78 1120
18.84 1137
18.9 1120
18.96 1093
19.02 1146
19.08 1178
19.14 1242
19.2 1172
19.26 1202
19.32 1211
19.38 1154
19.44 1220
19.5 1314
19.56 1384
19.62 1346
19.68 1332
19.74 1271
19.8 1293
19.86 1321
19.92 1238
19.98 1313
20 1257

File: 38-23.ASC
3 2568
3.06 2116
3.12 2053
3.18 1965
3.24 1920
3.3 1874
3.36 1723
3.42 1671
3.48 1535
3.54 1492
3.6 1399
3.66 1368
3.72 1365
3.78 1285
3.84 1298
3.9 1191
3.96 1260
4.02 1184
4.08 1217
4.14 1157
4.2 1109
4.26 1102
4.32 1148
4.38 1093
4.44 1064
4.5 1039
4.56 1006
4.62 979
4.68 1034
4.74 954
4.8 942
4.86 916
4.92 881
4.98 919
5.04 888
5.1 869
5.16 854
5.22 832
5.28 827
5.34 821
5.4 820
5.46 773
5.52 818
5.58 805
5.64 805
5.7 802
5.76 895
5.82 822
5.88 782
5.94 820
6 753
6.06 741
6.12 771
6.18 805
6.24 824
6.3 765
6.36 807
6.42 744
6.48 774
6.54 754
6.6 742
6.66 758
6.72 711
6.78 760
6.84 762
6.9 804
6.96 686
7.02 745
7.08 746
7.14 735
7.2 693
7.26 748
7.32 764
7.38 750
7.44 795
7.5 701
7.56 775
7.62 708
7.68 761
7.74 728
7.8 733
7.86 724
7.92 787
7.98 759
8.04 749
8.1 712
8.16 761
8.22 748
8.28 760
8.34 767
8.4 742
8.46 819
8.52 753
8.58 755
8.64 803
8.7 820
8.76 824
8.82 917
8.88 973
8.94 1272
9 1660
9.06 1425
9.12 912
9.18 758
9.24 793
9.3 766
9.36 771
9.42 736
9.48 769
9.54 754
9.6 849
9.66 778
9.72 869
9.78 851
9.84 877
9.9 1068
9.96 1277
10.02 1001
10.08 783
10.14 746
10.2 756
10.26 755
10.32 736
10.38 707
10.44 737
10.5 723
10.56 703
10.62 761
10.68 778
10.74 704
10.8 701
10.86 709
10.92 744
10.98 686
11.04 741
11.1 732
11.16 742
11.22 742
11.28 726
11.34 730
11.4 692
11.46 766
11.52 794
11.58 724
11.64 733
11.7 763
11.76 690
11.82 713
11.88 721
11.94 756
12 710
12.06 715
12.12 709
12.18 771
12.24 759
12.3 717
12.36 725
12.42 770
12.48 770
12.54 689
12.6 689
12.66 778
12.72 805
12.78 805
12.84 726
12.9 722
12.96 711
13.02 736
13.08 746
13.14 774
13.2 748
13.26 788
13.32 826
13.38 839
13.44 920
13.5 851
13.56 777
13.62 813
13.68 793
13.74 757
13.8 760
13.86 729
13.92 759
13.98 767
14.04 759
14.1 766
14.16 782
14.22 778
14.28 782
14.34 759
14.4 777
14.46 776
14.52 811
14.58 780
14.64 784
14.7 780
14.76 789
14.82 792
14.88 815
14.94 848
15 768
15.06 835
15.12 816
15.18 803
15.24 866
15.3 859
15.36 810
15.42 830
15.48 808
15.54 847
15.6 855
15.66 821
15.72 868
15.78 916
15.84 881
15.9 864
15.96 884
16.02 925
16.08 937
16.14 875
16.2 937
16.26 933
16.32 921
16.38 840
16.44 913
16.5 969
16.56 961
16.62 983
16.68 947
16.74 1025
16.8 1134
16.86 1317
16.92 1603
16.98 1903
17.04 1611
17.1 1187
17.16 1016
17.22 1056
17.28 1022
17.34 1041
17.4 1005
17.46 1045
17.52 1064
17.58 1063
17.64 1037
17.7 1030
17.76 1130
17.82 1135
17.88 1122
17.94 1158
18 1086
18.06 1125
18.12 1070
18.18 1125
18.24 1166
18.3 1210
18.36 1103
18.42 1131
18.48 1170
18.54 1261
18.6 1177
18.66 1197
18.72 1187
18.78 1205
18.84 1213
18.9 1262
18.96 1282
19.02 1240
19.08 1295
19.14 1246
19.2 1242
19.26 1257
19.32 1299
19.38 1298
19.44 1349
19.5 1383
19.56 1355
19.62 1318
19.68 1362
19.74 1386
19.8 1389
19.86 1426
19.92 1455
19.98 1458
20 1418

File: 38-26.ASC
3 3394
3.06 2966
3.12 2750
3.18 2643
3.24 2547
3.3 2446
3.36 2455
3.42 2417
3.48 2352
3.54 2224
3.6 2258
3.66 2266
3.72 2251
3.78 2168
3.84 2155
3.9 2185
3.96 2171
4.02 2152
4.08 2101
4.14 2092
4.2 2102
4.26 2086
4.32 2000
4.38 2102
4.44 2035
4.5 2079
4.56 2049
4.62 2030
4.68 2020
4.74 1964
4.8 2053
4.86 1962
4.92 2005
4.98 1997
5.04 1970
5.1 1959
5.16 1954
5.22 1980
5.28 2120
5.34 2116
5.4 2390
5.46 2247
5.52 2090
5.58 1873
5.64 1811
5.7 1684
5.76 1769
5.82 1566
5.88 1532
5.94 1393
6 1380
6.06 1366
6.12 1277
6.18 1298
6.24 1205
6.3 1228
6.36 1171
6.42 1138
6.48 1169
6.54 1087
6.6 1067
6.66 1051
6.72 1005
6.78 1066
6.84 998
6.9 1056
6.96 954
7.02 994
7.08 969
7.14 942
7.2 955
7.26 945
7.32 921
7.38 902
7.44 904
7.5 938
7.56 869
7.62 867
7.68 940
7.74 900
7.8 860
7.86 851
7.92 839
7.98 790
8.04 864
8.1 825
8.16 784
8.22 821
8.28 789
8.34 806
8.4 766
8.46 770
8.52 787
8.58 772
8.64 784
8.7 782
8.76 772
8.82 786
8.88 741
8.94 778
9 751
9.06 752
9.12 825
9.18 733
9.24 842
9.3 948
9.36 943
9.42 850
9.48 800
9.54 765
9.6 734
9.66 685
9.72 701
9.78 701
9.84 680
9.9 672
9.96 650
10.02 657
10.08 686
10.14 640
10.2 713
10.26 669
10.32 706
10.38 620
10.44 603
10.5 639
10.56 661
10.62 636
10.68 710
10.74 683
10.8 724
10.86 708
10.92 759
10.98 646
11.04 628
11.1 602
11.16 642
11.22 576
11.28 640
11.34 580
11.4 578
11.46 568
11.52 595
11.58 586
11.64 544
11.7 555
11.76 578
11.82 594
11.88 588
11.94 599
12 598
12.06 613
12.12 573
12.18 553
12.24 578
12.3 562
12.36 544
12.42 566
12.48 556
12.54 566
12.6 584
12.66 523
12.72 507
12.78 571
12.84 534
12.9 554
12.96 596
13.02 588
13.08 585
13.14 578
13.2 629
13.26 681
13.32 666
13.38 584
13.44 560
13.5 544
13.56 554
13.62 571
13.68 520
13.74 580
13.8 586
13.86 513
13.92 568
13.98 548
14.04 551
14.1 566
14.16 539
14.22 554
14.28 519
14.34 592
14.4 570
14.46 565
14.52 544
14.58 539
14.64 519
14.7 580
14.76 549
14.82 553
14.88 532
14.94 548
15 545
15.06 598
15.12 538
15.18 597
15.24 566
15.3 604
15.36 636
15.42 580
15.48 576
15.54 535
15.6 546
15.66 559
15.72 578
15.78 534
15.84 549
15.9 535
15.96 521
16.02 603
16.08 627
16.14 582
16.2 586
16.26 628
16.32 664
16.38 663
16.44 698
16.5 741
16.56 758
16.62 861
16.68 952
16.74 1288
16.8 1860
16.86 2866
16.92 4925
16.98 7860
17.04 7614
17.1 3859
17.16 1661
17.22 1002
17.28 815
17.34 744
17.4 708
17.46 720
17.52 711
17.58 682
17.64 631
17.7 675
17.76 663
17.82 698
17.88 673
17.94 654
18 675
18.06 644
18.12 642
18.18 623
18.24 686
18.3 645
18.36 690
18.42 639
18.48 685
18.54 694
18.6 645
18.66 660
18.72 647
18.78 628
18.84 694
18.9 662
18.96 728
19.02 656
19.08 739
19.14 661
19.2 677
19.26 679
19.32 688
19.38 736
19.44 708
19.5 699
19.56 708
19.62 694
19.68 711
19.74 742
19.8 745
19.86 742
19.92 758
19.98 706
20 692