Folder: CPC-code/xrd-UiO-67/pxrddata (part 27)

File: 107-1.ASC
3 1804
3.06 1473
3.12 1216
3.18 1183
3.24 1109
3.3 1124
3.36 1035
3.42 1022
3.48 1072
3.54 1029
3.6 1075
3.66 1007
3.72 1091
3.78 1032
3.84 1123
3.9 1091
3.96 1177
4.02 1192
4.08 1410
4.14 1292
4.2 1044
4.26 1030
4.32 973
4.38 940
4.44 938
4.5 980
4.56 996
4.62 1005
4.68 948
4.74 1096
4.8 1033
4.86 1153
4.92 1218
4.98 1302
5.04 1366
5.1 1463
5.16 1717
5.22 1844
5.28 2171
5.34 2571
5.4 3175
5.46 3065
5.52 2950
5.58 3164
5.64 3758
5.7 4675
5.76 5812
5.82 4765
5.88 2470
5.94 1491
6 1279
6.06 1077
6.12 1115
6.18 1062
6.24 992
6.3 1001
6.36 1068
6.42 1040
6.48 1072
6.54 1135
6.6 1227
6.66 1367
6.72 1306
6.78 1226
6.84 964
6.9 833
6.96 732
7.02 705
7.08 675
7.14 676
7.2 716
7.26 718
7.32 668
7.38 699
7.44 674
7.5 675
7.56 740
7.62 694
7.68 713
7.74 688
7.8 682
7.86 646
7.92 644
7.98 708
8.04 715
8.1 700
8.16 711
8.22 679
8.28 667
8.34 660
8.4 700
8.46 681
8.52 615
8.58 667
8.64 627
8.7 662
8.76 650
8.82 685
8.88 700
8.94 717
9 825
9.06 822
9.12 961
9.18 1033
9.24 1316
9.3 1585
9.36 1678
9.42 1268
9.48 869
9.54 778
9.6 755
9.66 742
9.72 674
9.78 676
9.84 702
9.9 675
9.96 722
10.02 739
10.08 777
10.14 849
10.2 800
10.26 756
10.32 706
10.38 677
10.44 652
10.5 663
10.56 732
10.62 736
10.68 803
10.74 949
10.8 979
10.86 1006
10.92 1209
10.98 1217
11.04 952
11.1 800
11.16 767
11.22 719
11.28 679
11.34 714
11.4 755
11.46 881
11.52 855
11.58 801
11.64 651
11.7 614
11.76 627
11.82 572
11.88 622
11.94 635
12 628
12.06 617
12.12 631
12.18 695
12.24 658
12.3 629
12.36 637
12.42 622
12.48 616
12.54 559
12.6 623
12.66 590
12.72 587
12.78 568
12.84 576
12.9 554
12.96 580
13.02 564
13.08 565
13.14 572
13.2 607
13.26 628
13.32 613
13.38 618
13.44 611
13.5 603
13.56 611
13.62 567
13.68 578
13.74 592
13.8 597
13.86 585
13.92 618
13.98 570
14.04 583
14.1 561
14.16 593
14.22 594
14.28 591
14.34 636
14.4 660
14.46 641
14.52 621
14.58 613
14.64 608
14.7 609
14.76 633
14.82 617
14.88 632
14.94 553
15 563
15.06 589
15.12 606
15.18 634
15.24 624
15.3 595
15.36 626
15.42 624
15.48 617
15.54 567
15.6 613
15.66 650
15.72 646
15.78 671
15.84 581
15.9 645
15.96 613
16.02 677
16.08 656
16.14 665
16.2 675
16.26 665
16.32 714
16.38 715
16.44 632
16.5 705
16.56 662
16.62 741
16.68 719
16.74 647
16.8 725
16.86 693
16.92 742
16.98 741
17.04 727
17.1 719
17.16 710
17.22 797
17.28 760
17.34 773
17.4 756
17.46 760
17.52 807
17.58 756
17.64 802
17.7 770
17.76 827
17.82 784
17.88 803
17.94 785
18 772
18.06 840
18.12 808
18.18 833
18.24 865
18.3 852
18.36 806
18.42 853
18.48 900
18.54 880
18.6 892
18.66 915
18.72 923
18.78 953
18.84 905
18.9 975
18.96 972
19.02 959
19.08 1042
19.14 1008
19.2 989
19.26 979
19.32 974
19.38 1004
19.44 999
19.5 1060
19.56 1071
19.62 1041
19.68 1062
19.74 967
19.8 1079
19.86 1093
19.92 1069
19.98 1044
20 1069

File: 107-2.ASC
3 1470
3.06 1053
3.12 825
3.18 733
3.24 751
3.3 694
3.36 644
3.42 629
3.48 585
3.54 591
3.6 561
3.66 565
3.72 554
3.78 549
3.84 499
3.9 544
3.96 556
4.02 564
4.08 527
4.14 537
4.2 524
4.26 504
4.32 497
4.38 481
4.44 513
4.5 541
4.56 469
4.62 505
4.68 479
4.74 480
4.8 489
4.86 473
4.92 493
4.98 538
5.04 509
5.1 545
5.16 553
5.22 568
5.28 582
5.34 607
5.4 686
5.46 735
5.52 840
5.58 844
5.64 963
5.7 992
5.76 1007
5.82 1128
5.88 1212
5.94 1290
6 1208
6.06 903
6.12 735
6.18 635
6.24 601
6.3 571
6.36 518
6.42 585
6.48 557
6.54 566
6.6 583
6.66 572
6.72 608
6.78 634
6.84 686
6.9 571
6.96 541
7.02 519
7.08 516
7.14 490
7.2 438
7.26 473
7.32 474
7.38 458
7.44 457
7.5 454
7.56 470
7.62 438
7.68 465
7.74 443
7.8 438
7.86 444
7.92 438
7.98 476
8.04 501
8.1 448
8.16 471
8.22 453
8.28 496
8.34 475
8.4 439
8.46 448
8.52 429
8.58 443
8.64 502
8.7 432
8.76 455
8.82 504
8.88 460
8.94 491
9 469
9.06 490
9.12 487
9.18 507
9.24 528
9.3 561
9.36 575
9.42 657
9.48 673
9.54 747
9.6 759
9.66 586
9.72 550
9.78 520
9.84 496
9.9 482
9.96 511
10.02 466
10.08 492
10.14 561
10.2 510
10.26 539
10.32 523
10.38 524
10.44 518
10.5 502
10.56 537
10.62 523
10.68 509
10.74 530
10.8 531
10.86 526
10.92 554
10.98 613
11.04 593
11.1 648
11.16 705
11.22 742
11.28 566
11.34 559
11.4 534
11.46 515
11.52 543
11.58 561
11.64 571
11.7 588
11.76 560
11.82 498
11.88 519
11.94 536
12 514
12.06 491
12.12 528
12.18 513
12.24 500
12.3 525
12.36 532
12.42 539
12.48 558
12.54 575
12.6 549
12.66 508
12.72 526
12.78 520
12.84 532
12.9 507
12.96 521
13.02 524
13.08 511
13.14 534
13.2 523
13.26 576
13.32 565
13.38 609
13.44 546
13.5 602
13.56 555
13.62 542
13.68 574
13.74 624
13.8 556
13.86 598
13.92 578
13.98 607
14.04 605
14.1 575
14.16 566
14.22 661
14.28 598
14.34 606
14.4 621
14.46 615
14.52 639
14.58 691
14.64 671
14.7 640
14.76 632
14.82 653
14.88 652
14.94 628
15 678
15.06 700
15.12 662
15.18 701
15.24 694
15.3 692
15.36 736
15.42 698
15.48 727
15.54 720
15.6 770
15.66 747
15.72 746
15.78 746
15.84 813
15.9 723
15.96 793
16.02 760
16.08 805
16.14 792
16.2 778
16.26 800
16.32 826
16.38 835
16.44 850
16.5 864
16.56 952
16.62 855
16.68 856
16.74 883
16.8 868
16.86 870
16.92 964
16.98 961
17.04 929
17.1 932
17.16 960
17.22 966
17.28 1029
17.34 1022
17.4 997
17.46 967
17.52 1025
17.58 987
17.64 1024
17.7 1057
17.76 1068
17.82 1090
17.88 1036
17.94 1124
18 1099
18.06 1121
18.12 1109
18.18 1146
18.24 1154
18.3 1167
18.36 1176
18.42 1212
18.48 1247
18.54 1223
18.6 1232
18.66 1231
18.72 1251
18.78 1281
18.84 1294
18.9 1267
18.96 1304
19.02 1349
19.08 1324
19.14 1358
19.2 1342
19.26 1444
19.32 1441
19.38 1463
19.44 1409
19.5 1472
19.56 1503
19.62 1475
19.68 1559
19.74 1532
19.8 1576
19.86 1573
19.92 1538
19.98 1515
20 1566

File: 107-3.ASC
3 1754
3.06 1247
3.12 1046
3.18 960
3.24 905
3.3 835
3.36 826
3.42 802
3.48 762
3.54 675
3.6 737
3.66 669
3.72 708
3.78 668
3.84 733
3.9 663
3.96 660
4.02 679
4.08 649
4.14 603
4.2 612
4.26 628
4.32 606
4.38 592
4.44 589
4.5 585
4.56 603
4.62 587
4.68 601
4.74 612
4.8 614
4.86 672
4.92 645
4.98 659
5.04 651
5.1 732
5.16 791
5.22 802
5.28 933
5.34 1019
5.4 1157
5.46 1230
5.52 1217
5.58 1244
5.64 1318
5.7 1428
5.76 1591
5.82 1608
5.88 1308
5.94 1055
6 788
6.06 768
6.12 744
6.18 668
6.24 652
6.3 663
6.36 634
6.42 657
6.48 629
6.54 662
6.6 696
6.66 694
6.72 650
6.78 605
6.84 522
6.9 516
6.96 522
7.02 538
7.08 544
7.14 550
7.2 533
7.26 494
7.32 510
7.38 517
7.44 518
7.5 494
7.56 498
7.62 471
7.68 509
7.74 477
7.8 522
7.86 498
7.92 550
7.98 493
8.04 535
8.1 492
8.16 502
8.22 520
8.28 520
8.34 533
8.4 514
8.46 485
8.52 466
8.58 511
8.64 522
8.7 526
8.76 544
8.82 547
8.88 534
8.94 550
9 572
9.06 592
9.12 612
9.18 635
9.24 720
9.3 747
9.36 858
9.42 902
9.48 735
9.54 667
9.6 599
9.66 556
9.72 600
9.78 525
9.84 548
9.9 575
9.96 544
10.02 581
10.08 614
10.14 596
10.2 590
10.26 562
10.32 570
10.38 586
10.44 540
10.5 524
10.56 587
10.62 567
10.68 627
10.74 658
10.8 671
10.86 721
10.92 753
10.98 788
11.04 771
11.1 663
11.16 619
11.22 607
11.28 602
11.34 600
11.4 570
11.46 603
11.52 620
11.58 604
11.64 589
11.7 588
11.76 544
11.82 552
11.88 554
11.94 561
12 517
12.06 544
12.12 552
12.18 531
12.24 576
12.3 563
12.36 550
12.42 534
12.48 553
12.54 535
12.6 553
12.66 491
12.72 496
12.78 553
12.84 537
12.9 565
12.96 532
13.02 562
13.08 529
13.14 563
13.2 589
13.26 549
13.32 577
13.38 538
13.44 607
13.5 538
13.56 552
13.62 571
13.68 606
13.74 557
13.8 570
13.86 555
13.92 599
13.98 571
14.04 603
14.1 569
14.16 645
14.22 570
14.28 621
14.34 613
14.4 658
14.46 636
14.52 667
14.58 629
14.64 659
14.7 653
14.76 638
14.82 679
14.88 640
14.94 662
15 652
15.06 661
15.12 652
15.18 640
15.24 641
15.3 667
15.36 642
15.42 686
15.48 698
15.54 643
15.6 695
15.66 695
15.72 667
15.78 719
15.84 745
15.9 709
15.96 696
16.02 655
16.08 703
16.14 741
16.2 718
16.26 781
16.32 725
16.38 762
16.44 767
16.5 742
16.56 727
16.62 769
16.68 751
16.74 735
16.8 832
16.86 758
16.92 831
16.98 824
17.04 816
17.1 795
17.16 812
17.22 821
17.28 807
17.34 893
17.4 863
17.46 816
17.52 872
17.58 898
17.64 907
17.7 888
17.76 914
17.82 893
17.88 898
17.94 958
18 899
18.06 959
18.12 971
18.18 959
18.24 980
18.3 946
18.36 1000
18.42 1011
18.48 1016
18.54 986
18.6 1011
18.66 1026
18.72 1088
18.78 1094
18.84 1085
18.9 1090
18.96 1137
19.02 1150
19.08 1154
19.14 1137
19.2 1103
19.26 1166
19.32 1121
19.38 1167
19.44 1249
19.5 1308
19.56 1276
19.62 1199
19.68 1320
19.74 1256
19.8 1228
19.86 1197
19.92 1296
19.98 1252
20 1187

File: 107-5.ASC
3 2142
3.06 1720
3.12 1440
3.18 1335
3.24 1350
3.3 1199
3.36 1194
3.42 1156
3.48 1222
3.54 1133
3.6 1145
3.66 1076
3.72 1062
3.78 1079
3.84 1059
3.9 1105
3.96 1103
4.02 1121
4.08 1038
4.14 1119
4.2 1068
4.26 1112
4.32 1102
4.38 1115
4.44 1104
4.5 1150
4.56 1159
4.62 1149
4.68 1147
4.74 1115
4.8 1160
4.86 1168
4.92 1171
4.98 1189
5.04 1249
5.1 1240
5.16 1234
5.22 1328
5.28 1359
5.34 1391
5.4 1382
5.46 1357
5.52 1398
5.58 1388
5.64 1413
5.7 1421
5.76 1358
5.82 1344
5.88 1209
5.94 1117
6 1145
6.06 1006
6.12 960
6.18 943
6.24 917
6.3 851
6.36 828
6.42 805
6.48 740
6.54 758
6.6 754
6.66 725
6.72 691
6.78 725
6.84 638
6.9 638
6.96 658
7.02 614
7.08 692
7.14 605
7.2 642
7.26 593
7.32 609
7.38 602
7.44 607
7.5 663
7.56 561
7.62 649
7.68 577
7.74 635
7.8 576
7.86 517
7.92 613
7.98 593
8.04 595
8.1 598
8.16 600
8.22 571
8.28 580
8.34 539
8.4 574
8.46 566
8.52 615
8.58 582
8.64 616
8.7 600
8.76 630
8.82 610
8.88 616
8.94 627
9 645
9.06 692
9.12 639
9.18 692
9.24 629
9.3 717
9.36 693
9.42 710
9.48 638
9.54 651
9.6 657
9.66 655
9.72 616
9.78 617
9.84 609
9.9 635
9.96 665
10.02 642
10.08 592
10.14 606
10.2 650
10.26 614
10.32 607
10.38 638
10.44 621
10.5 644
10.56 616
10.62 645
10.68 640
10.74 615
10.8 604
10.86 675
10.92 625
10.98 641
11.04 598
11.1 650
11.16 623
11.22 610
11.28 580
11.34 588
11.4 584
11.46 617
11.52 596
11.58 602
11.64 603
11.7 568
11.76 563
11.82 644
11.88 529
11.94 583
12 585
12.06 551
12.12 549
12.18 574
12.24 590
12.3 566
12.36 586
12.42 576
12.48 532
12.54 596
12.6 564
12.66 545
12.72 581
12.78 583
12.84 592
12.9 613
12.96 594
13.02 577
13.08 618
13.14 579
13.2 612
13.26 569
13.32 579
13.38 543
13.44 618
13.5 642
13.56 584
13.62 568
13.68 594
13.74 641
13.8 602
13.86 585
13.92 588
13.98 620
14.04 654
14.1 666
14.16 632
14.22 618
14.28 645
14.34 662
14.4 691
14.46 644
14.52 678
14.58 607
14.64 671
14.7 659
14.76 653
14.82 676
14.88 653
14.94 678
15 680
15.06 682
15.12 655
15.18 726
15.24 676
15.3 710
15.36 679
15.42 724
15.48 720
15.54 728
15.6 743
15.66 732
15.72 704
15.78 745
15.84 736
15.9 777
15.96 752
16.02 758
16.08 778
16.14 816
16.2 745
16.26 750
16.32 814
16.38 767
16.44 780
16.5 780
16.56 885
16.62 797
16.68 806
16.74 825
16.8 891
16.86 826
16.92 836
16.98 832
17.04 875
17.1 850
17.16 866
17.22 921
17.28 920
17.34 874
17.4 957
17.46 897
17.52 930
17.58 870
17.64 964
17.7 950
17.76 995
17.82 1011
17.88 975
17.94 986
18 957
18.06 1000
18.12 988
18.18 991
18.24 1016
18.3 1019
18.36 1074
18.42 1051
18.48 1058
18.54 1019
18.6 1032
18.66 1035
18.72 1106
18.78 1132
18.84 1129
18.9 1123
18.96 1177
19.02 1130
19.08 1138
19.14 1133
19.2 1119
19.26 1151
19.32 1179
19.38 1231
19.44 1186
19.5 1210
19.56 1236
19.62 1230
19.68 1183
19.74 1186
19.8 1196
19.86 1229
19.92 1233
19.98 1262
20 1253

File: 107-6.ASC
3 1849
3.06 1567
3.12 1318
3.18 1206
3.24 1205
3.3 1241
3.36 1117
3.42 1073
3.48 1092
3.54 1010
3.6 1043
3.66 1019
3.72 1077
3.78 1011
3.84 1039
3.9 982
3.96 929
4.02 952
4.08 988
4.14 964
4.2 952
4.26 939
4.32 971
4.38 997
4.44 984
4.5 957
4.56 978
4.62 988
4.68 1015
4.74 1000
4.8 986
4.86 1070
4.92 1036
4.98 1012
5.04 991
5.1 1010
5.16 992
5.22 1022
5.28 1029
5.34 1007
5.4 1004
5.46 1019
5.52 952
5.58 955
5.64 905
5.7 887
5.76 893
5.82 907
5.88 793
5.94 844
6 801
6.06 784
6.12 787
6.18 721
6.24 675
6.3 699
6.36 738
6.42 717
6.48 745
6.54 650
6.6 658
6.66 666
6.72 626
6.78 677
6.84 676
6.9 613
6.96 635
7.02 659
7.08 578
7.14 623
7.2 640
7.26 598
7.32 589
7.38 646
7.44 615
7.5 608
7.56 607
7.62 608
7.68 663
7.74 621
7.8 578
7.86 596
7.92 602
7.98 555
8.04 571
8.1 633
8.16 586
8.22 595
8.28 570
8.34 632
8.4 615
8.46 623
8.52 589
8.58 648
8.64 624
8.7 625
8.76 614
8.82 604
8.88 598
8.94 600
9 639
9.06 606
9.12 593
9.18 619
9.24 591
9.3 589
9.36 639
9.42 602
9.48 607
9.54 623
9.6 619
9.66 603
9.72 630
9.78 609
9.84 596
9.9 611
9.96 596
10.02 617
10.08 635
10.14 606
10.2 626
10.26 631
10.32 625
10.38 597
10.44 650
10.5 585
10.56 598
10.62 562
10.68 624
10.74 587
10.8 540
10.86 602
10.92 637
10.98 592
11.04 567
11.1 658
11.16 583
11.22 606
11.28 606
11.34 607
11.4 584
11.46 618
11.52 614
11.58 601
11.64 625
11.7 614
11.76 639
11.82 580
11.88 598
11.94 654
12 599
12.06 568
12.12 601
12.18 614
12.24 617
12.3 619
12.36 675
12.42 624
12.48 610
12.54 644
12.6 622
12.66 633
12.72 605
12.78 637
12.84 656
12.9 637
12.96 679
13.02 634
13.08 595
13.14 675
13.2 664
13.26 675
13.32 637
13.38 681
13.44 674
13.5 687
13.56 687
13.62 642
13.68 715
13.74 680
13.8 683
13.86 685
13.92 711
13.98 696
14.04 690
14.1 697
14.16 698
14.22 663
14.28 682
14.34 692
14.4 756
14.46 701
14.52 719
14.58 671
14.64 710
14.7 720
14.76 785
14.82 768
14.88 753
14.94 765
15 771
15.06 763
15.12 802
15.18 781
15.24 749
15.3 794
15.36 769
15.42 790
15.48 786
15.54 823
15.6 803
15.66 859
15.72 791
15.78 867
15.84 848
15.9 894
15.96 873
16.02 874
16.08 824
16.14 897
16.2 898
16.26 880
16.32 907
16.38 884
16.44 958
16.5 904
16.56 912
16.62 943
16.68 989
16.74 989
16.8 986
16.86 959
16.92 1052
16.98 1026
17.04 986
17.1 1027
17.16 989
17.22 1032
17.28 991
17.34 1012
17.4 1028
17.46 1105
17.52 1101
17.58 1034
17.64 1092
17.7 1100
17.76 1065
17.82 1068
17.88 1167
17.94 1122
18 1126
18.06 1091
18.12 1135
18.18 1147
18.24 1175
18.3 1164
18.36 1232
18.42 1164
18.48 1202
18.54 1186
18.6 1169
18.66 1236
18.72 1276
18.78 1219
18.84 1213
18.9 1290
18.96 1239
19.02 1243
19.08 1277
19.14 1284
19.2 1234
19.26 1281
19.32 1261
19.38 1296
19.44 1307
19.5 1315
19.56 1344
19.62 1321
19.68 1325
19.74 1392
19.8 1292
19.86 1363
19.92 1301
19.98 1361
20 1375

File: 107-8.ASC
3 2031
3.06 1584
3.12 1371
3.18 1229
3.24 1242
3.3 1203
3.36 1085
3.42 1046
3.48 993
3.54 1020
3.6 941
3.66 946
3.72 919
3.78 901
3.84 859
3.9 862
3.96 847
4.02 852
4.08 807
4.14 839
4.2 862
4.26 800
4.32 782
4.38 780
4.44 807
4.5 817
4.56 851
4.62 810
4.68 845
4.74 888
4.8 858
4.86 906
4.92 884
4.98 904
5.04 973
5.1 956
5.16 1023
5.22 1026
5.28 1074
5.34 1054
5.4 1049
5.46 1045
5.52 1048
5.58 1010
5.64 995
5.7 1059
5.76 953
5.82 956
5.88 826
5.94 812
6 758
6.06 758
6.12 730
6.18 739
6.24 659
6.3 645
6.36 706
6.42 652
6.48 611
6.54 603
6.6 600
6.66 579
6.72 577
6.78 598
6.84 546
6.9 497
6.96 561
7.02 550
7.08 538
7.14 502
7.2 529
7.26 585
7.32 592
7.38 520
7.44 534
7.5 558
7.56 487
7.62 551
7.68 532
7.74 547
7.8 515
7.86 571
7.92 547
7.98 509
8.04 506
8.1 541
8.16 512
8.22 543
8.28 501
8.34 539
8.4 530
8.46 522
8.52 551
8.58 536
8.64 539
8.7 538
8.76 532
8.82 488
8.88 595
8.94 586
9 552
9.06 579
9.12 605
9.18 583
9.24 575
9.3 583
9.36 613
9.42 565
9.48 571
9.54 546
9.6 539
9.66 560
9.72 558
9.78 580
9.84 581
9.9 538
9.96 566
10.02 536
10.08 554
10.14 577
10.2 552
10.26 545
10.32 540
10.38 506
10.44 585
10.5 539
10.56 526
10.62 530
10.68 570
10.74 575
10.8 532
10.86 551
10.92 536
10.98 568
11.04 521
11.1 518
11.16 535
11.22 480
11.28 536
11.34 518
11.4 519
11.46 568
11.52 524
11.58 518
11.64 468
11.7 543
11.76 522
11.82 523
11.88 496
11.94 542
12 547
12.06 535
12.12 520
12.18 495
12.24 520
12.3 471
12.36 532
12.42 504
12.48 536
12.54 549
12.6 506
12.66 527
12.72 504
12.78 542
12.84 546
12.9 527
12.96 516
13.02 517
13.08 517
13.14 539
13.2 523
13.26 553
13.32 546
13.38 528
13.44 597
13.5 599
13.56 528
13.62 563
13.68 556
13.74 539
13.8 554
13.86 605
13.92 567
13.98 551
14.04 572
14.1 568
14.16 572
14.22 602
14.28 544
14.34 586
14.4 585
14.46 586
14.52 587
14.58 618
14.64 594
14.7 593
14.76 599
14.82 645
14.88 610
14.94 635
15 629
15.06 589
15.12 656
15.18 674
15.24 633
15.3 649
15.36 669
15.42 658
15.48 640
15.54 690
15.6 690
15.66 632
15.72 646
15.78 651
15.84 712
15.9 696
15.96 674
16.02 702
16.08 667
16.14 654
16.2 696
16.26 748
16.32 700
16.38 746
16.44 735
16.5 707
16.56 761
16.62 739
16.68 723
16.74 800
16.8 802
16.86 787
16.92 807
16.98 774
17.04 766
17.1 790
17.16 804
17.22 830
17.28 848
17.34 821
17.4 851
17.46 830
17.52 838
17.58 792
17.64 887
17.7 937
17.76 887
17.82 874
17.88 834
17.94 916
18 871
18.06 886
18.12 861
18.18 949
18.24 910
18.3 926
18.36 930
18.42 935
18.48 952
18.54 911
18.6 983
18.66 950
18.72 1017
18.78 987
18.84 1098
18.9 1003
18.96 1039
19.02 1004
19.08 1015
19.14 1044
19.2 1053
19.26 1067
19.32 1070
19.38 1080
19.44 1063
19.5 1109
19.56 1082
19.62 1135
19.68 1101
19.74 1083
19.8 1062
19.86 1113
19.92 1108
19.98 1129
20 1127