Folder: CPC-code/xrd-UiO-67/pxrddata (part 13)

File: 36-31.ASC
3 1897
3.06 1725
3.12 1725
3.18 1638
3.24 1695
3.3 1490
3.36 1506
3.42 1456
3.48 1448
3.54 1468
3.6 1417
3.66 1304
3.72 1305
3.78 1317
3.84 1240
3.9 1295
3.96 1178
4.02 1225
4.08 1202
4.14 1160
4.2 1136
4.26 1092
4.32 1122
4.38 1098
4.44 1021
4.5 1057
4.56 1086
4.62 1045
4.68 1054
4.74 1075
4.8 1048
4.86 977
4.92 1014
4.98 967
5.04 973
5.1 963
5.16 1002
5.22 993
5.28 1032
5.34 1091
5.4 1142
5.46 1115
5.52 1084
5.58 1012
5.64 962
5.7 897
5.76 1049
5.82 984
5.88 839
5.94 793
6 695
6.06 749
6.12 698
6.18 703
6.24 635
6.3 612
6.36 643
6.42 589
6.48 622
6.54 611
6.6 581
6.66 554
6.72 563
6.78 605
6.84 594
6.9 522
6.96 558
7.02 602
7.08 569
7.14 523
7.2 529
7.26 499
7.32 486
7.38 517
7.44 503
7.5 507
7.56 484
7.62 465
7.68 493
7.74 511
7.8 480
7.86 456
7.92 491
7.98 467
8.04 488
8.1 468
8.16 459
8.22 494
8.28 512
8.34 480
8.4 490
8.46 483
8.52 462
8.58 466
8.64 459
8.7 502
8.76 446
8.82 482
8.88 466
8.94 476
9 455
9.06 500
9.12 428
9.18 488
9.24 447
9.3 539
9.36 517
9.42 542
9.48 470
9.54 459
9.6 438
9.66 418
9.72 487
9.78 496
9.84 474
9.9 461
9.96 474
10.02 450
10.08 437
10.14 466
10.2 415
10.26 425
10.32 427
10.38 447
10.44 415
10.5 443
10.56 416
10.62 435
10.68 435
10.74 448
10.8 479
10.86 466
10.92 444
10.98 429
11.04 398
11.1 420
11.16 417
11.22 412
11.28 415
11.34 415
11.4 417
11.46 373
11.52 456
11.58 435
11.64 406
11.7 415
11.76 403
11.82 456
11.88 422
11.94 394
12 420
12.06 432
12.12 430
12.18 412
12.24 428
12.3 406
12.36 394
12.42 415
12.48 366
12.54 406
12.6 408
12.66 457
12.72 432
12.78 427
12.84 410
12.9 430
12.96 412
13.02 414
13.08 438
13.14 438
13.2 396
13.26 474
13.32 430
13.38 408
13.44 427
13.5 459
13.56 438
13.62 435
13.68 445
13.74 450
13.8 387
13.86 451
13.92 409
13.98 398
14.04 447
14.1 418
14.16 412
14.22 442
14.28 430
14.34 453
14.4 503
14.46 438
14.52 447
14.58 458
14.64 450
14.7 455
14.76 438
14.82 460
14.88 478
14.94 464
15 441
15.06 489
15.12 472
15.18 485
15.24 448
15.3 470
15.36 489
15.42 447
15.48 439
15.54 502
15.6 484
15.66 488
15.72 492
15.78 469
15.84 500
15.9 514
15.96 494
16.02 527
16.08 524
16.14 482
16.2 487
16.26 532
16.32 528
16.38 529
16.44 522
16.5 530
16.56 499
16.62 520
16.68 602
16.74 558
16.8 574
16.86 589
16.92 661
16.98 939
17.04 1071
17.1 881
17.16 726
17.22 639
17.28 591
17.34 583
17.4 588
17.46 538
17.52 596
17.58 596
17.64 555
17.7 551
17.76 664
17.82 574
17.88 618
17.94 626
18 655
18.06 587
18.12 618
18.18 634
18.24 612
18.3 598
18.36 680
18.42 636
18.48 680
18.54 655
18.6 670
18.66 645
18.72 668
18.78 667
18.84 707
18.9 669
18.96 690
19.02 720
19.08 642
19.14 718
19.2 697
19.26 708
19.32 718
19.38 775
19.44 720
19.5 719
19.56 794
19.62 696
19.68 759
19.74 733
19.8 806
19.86 763
19.92 704
19.98 735
20 728

File: 36-32.ASC
3 2318
3.06 2144
3.12 2126
3.18 1974
3.24 1926
3.3 1846
3.36 1767
3.42 1789
3.48 1736
3.54 1701
3.6 1643
3.66 1596
3.72 1575
3.78 1589
3.84 1514
3.9 1591
3.96 1499
4.02 1448
4.08 1436
4.14 1420
4.2 1452
4.26 1453
4.32 1414
4.38 1347
4.44 1378
4.5 1354
4.56 1379
4.62 1179
4.68 1344
4.74 1323
4.8 1349
4.86 1297
4.92 1213
4.98 1228
5.04 1282
5.1 1209
5.16 1252
5.22 1267
5.28 1338
5.34 1324
5.4 1481
5.46 1293
5.52 1204
5.58 1159
5.64 1170
5.7 1125
5.76 1139
5.82 1151
5.88 981
5.94 945
6 880
6.06 844
6.12 811
6.18 841
6.24 837
6.3 810
6.36 779
6.42 794
6.48 732
6.54 749
6.6 755
6.66 679
6.72 691
6.78 711
6.84 674
6.9 705
6.96 639
7.02 679
7.08 672
7.14 632
7.2 599
7.26 661
7.32 614
7.38 600
7.44 627
7.5 637
7.56 604
7.62 568
7.68 622
7.74 609
7.8 552
7.86 534
7.92 613
7.98 596
8.04 567
8.1 580
8.16 558
8.22 569
8.28 535
8.34 547
8.4 575
8.46 527
8.52 542
8.58 557
8.64 567
8.7 519
8.76 507
8.82 537
8.88 551
8.94 586
9 522
9.06 552
9.12 542
9.18 557
9.24 626
9.3 635
9.36 625
9.42 595
9.48 555
9.54 536
9.6 515
9.66 567
9.72 501
9.78 547
9.84 536
9.9 507
9.96 550
10.02 519
10.08 476
10.14 504
10.2 480
10.26 510
10.32 503
10.38 494
10.44 511
10.5 494
10.56 501
10.62 530
10.68 558
10.74 503
10.8 538
10.86 509
10.92 479
10.98 459
11.04 469
11.1 470
11.16 509
11.22 461
11.28 513
11.34 501
11.4 481
11.46 482
11.52 469
11.58 499
11.64 438
11.7 425
11.76 469
11.82 477
11.88 493
11.94 438
12 481
12.06 500
12.12 436
12.18 468
12.24 471
12.3 482
12.36 482
12.42 494
12.48 484
12.54 489
12.6 484
12.66 521
12.72 538
12.78 496
12.84 473
12.9 473
12.96 542
13.02 477
13.08 492
13.14 510
13.2 527
13.26 511
13.32 484
13.38 472
13.44 511
13.5 530
13.56 478
13.62 494
13.68 501
13.74 512
13.8 508
13.86 467
13.92 541
13.98 507
14.04 494
14.1 510
14.16 555
14.22 530
14.28 520
14.34 536
14.4 524
14.46 575
14.52 523
14.58 550
14.64 533
14.7 546
14.76 560
14.82 580
14.88 551
14.94 532
15 520
15.06 525
15.12 549
15.18 597
15.24 535
15.3 580
15.36 552
15.42 562
15.48 587
15.54 542
15.6 579
15.66 595
15.72 605
15.78 556
15.84 587
15.9 600
15.96 621
16.02 565
16.08 624
16.14 595
16.2 602
16.26 636
16.32 602
16.38 637
16.44 630
16.5 637
16.56 651
16.62 673
16.68 655
16.74 712
16.8 728
16.86 800
16.92 971
16.98 1249
17.04 1196
17.1 884
17.16 759
17.22 734
17.28 695
17.34 746
17.4 708
17.46 732
17.52 778
17.58 746
17.64 701
17.7 732
17.76 731
17.82 774
17.88 767
17.94 783
18 747
18.06 751
18.12 743
18.18 827
18.24 792
18.3 740
18.36 836
18.42 774
18.48 748
18.54 785
18.6 814
18.66 820
18.72 776
18.78 834
18.84 885
18.9 869
18.96 856
19.02 793
19.08 851
19.14 875
19.2 889
19.26 880
19.32 884
19.38 898
19.44 977
19.5 995
19.56 922
19.62 912
19.68 886
19.74 939
19.8 912
19.86 989
19.92 936
19.98 884
20 950

File: 36-33.ASC
3 1183
3.06 1074
3.12 1029
3.18 1073
3.24 1010
3.3 961
3.36 908
3.42 922
3.48 858
3.54 860
3.6 861
3.66 874
3.72 852
3.78 769
3.84 868
3.9 793
3.96 794
4.02 763
4.08 787
4.14 747
4.2 731
4.26 752
4.32 716
4.38 685
4.44 686
4.5 673
4.56 711
4.62 669
4.68 695
4.74 676
4.8 681
4.86 663
4.92 690
4.98 674
5.04 691
5.1 677
5.16 669
5.22 732
5.28 815
5.34 910
5.4 965
5.46 1177
5.52 1451
5.58 1572
5.64 973
5.7 745
5.76 749
5.82 658
5.88 640
5.94 585
6 534
6.06 531
6.12 563
6.18 530
6.24 514
6.3 505
6.36 512
6.42 482
6.48 492
6.54 495
6.6 495
6.66 499
6.72 474
6.78 496
6.84 456
6.9 444
6.96 403
7.02 428
7.08 451
7.14 413
7.2 417
7.26 466
7.32 427
7.38 402
7.44 436
7.5 446
7.56 426
7.62 405
7.68 409
7.74 448
7.8 420
7.86 415
7.92 425
7.98 404
8.04 410
8.1 421
8.16 417
8.22 435
8.28 421
8.34 412
8.4 452
8.46 413
8.52 375
8.58 408
8.64 395
8.7 400
8.76 394
8.82 406
8.88 388
8.94 402
9 394
9.06 426
9.12 426
9.18 472
9.24 447
9.3 444
9.36 514
9.42 601
9.48 641
9.54 563
9.6 443
9.66 390
9.72 423
9.78 401
9.84 363
9.9 399
9.96 372
10.02 398
10.08 381
10.14 389
10.2 377
10.26 394
10.32 369
10.38 383
10.44 388
10.5 411
10.56 408
10.62 373
10.68 417
10.74 417
10.8 410
10.86 494
10.92 525
10.98 520
11.04 404
11.1 429
11.16 432
11.22 394
11.28 403
11.34 362
11.4 342
11.46 362
11.52 342
11.58 402
11.64 390
11.7 354
11.76 384
11.82 361
11.88 367
11.94 417
12 394
12.06 362
12.12 389
12.18 389
12.24 400
12.3 394
12.36 387
12.42 398
12.48 374
12.54 383
12.6 373
12.66 364
12.72 392
12.78 360
12.84 415
12.9 381
12.96 395
13.02 402
13.08 401
13.14 368
13.2 402
13.26 404
13.32 403
13.38 400
13.44 392
13.5 422
13.56 434
13.62 434
13.68 410
13.74 399
13.8 391
13.86 407
13.92 425
13.98 387
14.04 448
14.1 435
14.16 453
14.22 420
14.28 436
14.34 455
14.4 463
14.46 422
14.52 417
14.58 441
14.64 445
14.7 462
14.76 432
14.82 453
14.88 439
14.94 457
15 441
15.06 470
15.12 454
15.18 447
15.24 448
15.3 461
15.36 455
15.42 478
15.48 490
15.54 482
15.6 446
15.66 478
15.72 463
15.78 473
15.84 486
15.9 468
15.96 521
16.02 494
16.08 519
16.14 516
16.2 522
16.26 525
16.32 534
16.38 512
16.44 496
16.5 486
16.56 556
16.62 509
16.68 532
16.74 542
16.8 608
16.86 627
16.92 569
16.98 579
17.04 678
17.1 749
17.16 872
17.22 719
17.28 612
17.34 639
17.4 656
17.46 578
17.52 620
17.58 642
17.64 670
17.7 637
17.76 647
17.82 651
17.88 656
17.94 659
18 686
18.06 679
18.12 657
18.18 680
18.24 700
18.3 668
18.36 688
18.42 709
18.48 694
18.54 744
18.6 667
18.66 747
18.72 733
18.78 752
18.84 766
18.9 776
18.96 793
19.02 778
19.08 744
19.14 756
19.2 779
19.26 748
19.32 800
19.38 835
19.44 806
19.5 856
19.56 881
19.62 892
19.68 847
19.74 835
19.8 813
19.86 884
19.92 892
19.98 884
20 846

File: 36-34.ASC
3 1416
3.06 1302
3.12 1288
3.18 1236
3.24 1205
3.3 1182
3.36 1103
3.42 1144
3.48 1146
3.54 1084
3.6 1066
3.66 1036
3.72 1063
3.78 1054
3.84 1046
3.9 1045
3.96 1061
4.02 991
4.08 1023
4.14 970
4.2 928
4.26 942
4.32 952
4.38 940
4.44 953
4.5 919
4.56 908
4.62 935
4.68 864
4.74 905
4.8 902
4.86 931
4.92 895
4.98 873
5.04 864
5.1 856
5.16 899
5.22 940
5.28 877
5.34 945
5.4 1000
5.46 1147
5.52 1118
5.58 876
5.64 752
5.7 755
5.76 718
5.82 673
5.88 693
5.94 651
6 642
6.06 633
6.12 633
6.18 590
6.24 579
6.3 579
6.36 596
6.42 568
6.48 582
6.54 558
6.6 569
6.66 573
6.72 498
6.78 552
6.84 556
6.9 530
6.96 536
7.02 548
7.08 522
7.14 583
7.2 545
7.26 569
7.32 527
7.38 517
7.44 520
7.5 508
7.56 530
7.62 549
7.68 542
7.74 489
7.8 590
7.86 478
7.92 490
7.98 513
8.04 527
8.1 525
8.16 509
8.22 513
8.28 488
8.34 468
8.4 511
8.46 524
8.52 518
8.58 493
8.64 537
8.7 474
8.76 495
8.82 539
8.88 498
8.94 493
9 473
9.06 537
9.12 486
9.18 526
9.24 505
9.3 526
9.36 580
9.42 605
9.48 524
9.54 519
9.6 460
9.66 478
9.72 518
9.78 480
9.84 513
9.9 479
9.96 523
10.02 460
10.08 471
10.14 501
10.2 502
10.26 500
10.32 503
10.38 503
10.44 498
10.5 508
10.56 486
10.62 453
10.68 431
10.74 499
10.8 539
10.86 520
10.92 493
10.98 504
11.04 442
11.1 484
11.16 453
11.22 502
11.28 503
11.34 489
11.4 455
11.46 483
11.52 510
11.58 500
11.64 482
11.7 479
11.76 479
11.82 500
11.88 511
11.94 519
12 478
12.06 466
12.12 511
12.18 462
12.24 518
12.3 512
12.36 477
12.42 488
12.48 510
12.54 478
12.6 525
12.66 501
12.72 511
12.78 521
12.84 496
12.9 507
12.96 474
13.02 526
13.08 514
13.14 498
13.2 509
13.26 539
13.32 568
13.38 540
13.44 549
13.5 536
13.56 583
13.62 529
13.68 531
13.74 556
13.8 548
13.86 544
13.92 546
13.98 547
14.04 546
14.1 520
14.16 588
14.22 578
14.28 577
14.34 557
14.4 569
14.46 596
14.52 628
14.58 567
14.64 588
14.7 629
14.76 576
14.82 589
14.88 605
14.94 593
15 633
15.06 597
15.12 588
15.18 619
15.24 677
15.3 643
15.36 625
15.42 606
15.48 659
15.54 659
15.6 661
15.66 627
15.72 653
15.78 692
15.84 656
15.9 692
15.96 693
16.02 693
16.08 711
16.14 693
16.2 727
16.26 728
16.32 721
16.38 681
16.44 720
16.5 744
16.56 723
16.62 793
16.68 731
16.74 776
16.8 854
16.86 878
16.92 941
16.98 1150
17.04 1448
17.1 1568
17.16 1111
17.22 844
17.28 835
17.34 854
17.4 894
17.46 869
17.52 860
17.58 895
17.64 890
17.7 876
17.76 882
17.82 864
17.88 924
17.94 919
18 984
18.06 949
18.12 905
18.18 941
18.24 957
18.3 964
18.36 959
18.42 981
18.48 965
18.54 983
18.6 1025
18.66 1019
18.72 1025
18.78 1002
18.84 1030
18.9 1007
18.96 1131
19.02 1059
19.08 1103
19.14 1094
19.2 1062
19.26 1149
19.32 1093
19.38 1154
19.44 1159
19.5 1145
19.56 1128
19.62 1212
19.68 1262
19.74 1185
19.8 1208
19.86 1238
19.92 1259
19.98 1271
20 1226

File: 36-35.ASC
3 1668
3.06 1603
3.12 1478
3.18 1493
3.24 1470
3.3 1384
3.36 1373
3.42 1320
3.48 1239
3.54 1203
3.6 1234
3.66 1210
3.72 1110
3.78 1144
3.84 1103
3.9 1065
3.96 1071
4.02 1057
4.08 1012
4.14 950
4.2 1014
4.26 949
4.32 915
4.38 950
4.44 927
4.5 875
4.56 885
4.62 864
4.68 861
4.74 847
4.8 900
4.86 880
4.92 873
4.98 817
5.04 868
5.1 900
5.16 905
5.22 859
5.28 1051
5.34 1090
5.4 1249
5.46 1511
5.52 1533
5.58 1043
5.64 889
5.7 822
5.76 768
5.82 786
5.88 737
5.94 696
6 677
6.06 658
6.12 604
6.18 663
6.24 648
6.3 614
6.36 623
6.42 602
6.48 603
6.54 600
6.6 601
6.66 545
6.72 579
6.78 602
6.84 622
6.9 584
6.96 569
7.02 569
7.08 583
7.14 520
7.2 569
7.26 547
7.32 574
7.38 579
7.44 500
7.5 543
7.56 539
7.62 522
7.68 541
7.74 587
7.8 554
7.86 508
7.92 538
7.98 536
8.04 486
8.1 528
8.16 533
8.22 474
8.28 526
8.34 512
8.4 510
8.46 498
8.52 544
8.58 515
8.64 519
8.7 542
8.76 488
8.82 495
8.88 520
8.94 506
9 512
9.06 470
9.12 530
9.18 538
9.24 587
9.3 645
9.36 713
9.42 789
9.48 614
9.54 522
9.6 515
9.66 479
9.72 502
9.78 491
9.84 467
9.9 509
9.96 524
10.02 529
10.08 505
10.14 474
10.2 506
10.26 468
10.32 483
10.38 501
10.44 511
10.5 487
10.56 536
10.62 479
10.68 523
10.74 576
10.8 634
10.86 641
10.92 587
10.98 574
11.04 499
11.1 469
11.16 505
11.22 473
11.28 495
11.34 475
11.4 518
11.46 503
11.52 501
11.58 489
11.64 494
11.7 500
11.76 509
11.82 521
11.88 497
11.94 492
12 507
12.06 508
12.12 503
12.18 488
12.24 500
12.3 514
12.36 528
12.42 506
12.48 526
12.54 518
12.6 531
12.66 544
12.72 471
12.78 562
12.84 535
12.9 533
12.96 567
13.02 574
13.08 538
13.14 553
13.2 530
13.26 566
13.32 546
13.38 569
13.44 587
13.5 559
13.56 601
13.62 575
13.68 540
13.74 578
13.8 611
13.86 591
13.92 559
13.98 556
14.04 554
14.1 593
14.16 609
14.22 611
14.28 627
14.34 598
14.4 608
14.46 628
14.52 577
14.58 623
14.64 608
14.7 612
14.76 583
14.82 655
14.88 605
14.94 627
15 630
15.06 651
15.12 657
15.18 706
15.24 681
15.3 641
15.36 631
15.42 672
15.48 663
15.54 703
15.6 637
15.66 685
15.72 665
15.78 705
15.84 686
15.9 681
15.96 756
16.02 698
16.08 741
16.14 773
16.2 732
16.26 732
16.32 747
16.38 785
16.44 765
16.5 801
16.56 759
16.62 774
16.68 797
16.74 872
16.8 825
16.86 963
16.92 1041
16.98 1225
17.04 1604
17.1 1579
17.16 1092
17.22 968
17.28 898
17.34 865
17.4 949
17.46 936
17.52 962
17.58 907
17.64 938
17.7 918
17.76 986
17.82 984
17.88 992
17.94 982
18 1067
18.06 1002
18.12 1006
18.18 977
18.24 998
18.3 1041
18.36 1087
18.42 1049
18.48 1004
18.54 1074
18.6 1096
18.66 1067
18.72 1133
18.78 1114
18.84 1077
18.9 1128
18.96 1118
19.02 1120
19.08 1155
19.14 1168
19.2 1220
19.26 1163
19.32 1171
19.38 1183
19.44 1246
19.5 1289
19.56 1260
19.62 1283
19.68 1260
19.74 1300
19.8 1230
19.86 1288
19.92 1280
19.98 1283
20 1284

File: 36-37.ASC
3 2220
3.06 2064
3.12 1889
3.18 1825
3.24 1839
3.3 1787
3.36 1630
3.42 1574
3.48 1517
3.54 1530
3.6 1432
3.66 1351
3.72 1369
3.78 1274
3.84 1268
3.9 1191
3.96 1143
4.02 1213
4.08 1086
4.14 1087
4.2 1064
4.26 1071
4.32 934
4.38 913
4.44 863
4.5 895
4.56 869
4.62 901
4.68 848
4.74 867
4.8 825
4.86 869
4.92 792
4.98 801
5.04 886
5.1 842
5.16 961
5.22 960
5.28 1069
5.34 1256
5.4 1510
5.46 2112
5.52 1662
5.58 1202
5.64 963
5.7 934
5.76 824
5.82 754
5.88 701
5.94 656
6 655
6.06 610
6.12 623
6.18 594
6.24 545
6.3 565
6.36 569
6.42 544
6.48 569
6.54 597
6.6 561
6.66 543
6.72 576
6.78 537
6.84 515
6.9 499
6.96 478
7.02 520
7.08 522
7.14 510
7.2 508
7.26 514
7.32 475
7.38 507
7.44 468
7.5 489
7.56 469
7.62 500
7.68 505
7.74 480
7.8 467
7.86 466
7.92 489
7.98 438
8.04 495
8.1 454
8.16 459
8.22 476
8.28 457
8.34 465
8.4 441
8.46 441
8.52 434
8.58 473
8.64 460
8.7 473
8.76 472
8.82 455
8.88 439
8.94 445
9 434
9.06 507
9.12 522
9.18 495
9.24 567
9.3 631
9.36 860
9.42 914
9.48 580
9.54 512
9.6 478
9.66 496
9.72 516
9.78 489
9.84 458
9.9 475
9.96 481
10.02 489
10.08 445
10.14 455
10.2 429
10.26 487
10.32 456
10.38 472
10.44 444
10.5 472
10.56 493
10.62 449
10.68 511
10.74 579
10.8 637
10.86 733
10.92 591
10.98 573
11.04 509
11.1 434
11.16 490
11.22 472
11.28 438
11.34 449
11.4 474
11.46 452
11.52 458
11.58 490
11.64 472
11.7 479
11.76 459
11.82 495
11.88 491
11.94 470
12 497
12.06 445
12.12 476
12.18 477
12.24 471
12.3 476
12.36 525
12.42 497
12.48 512
12.54 462
12.6 532
12.66 486
12.72 478
12.78 507
12.84 481
12.9 486
12.96 506
13.02 510
13.08 510
13.14 468
13.2 495
13.26 559
13.32 522
13.38 537
13.44 515
13.5 511
13.56 515
13.62 505
13.68 534
13.74 518
13.8 546
13.86 505
13.92 583
13.98 507
14.04 536
14.1 577
14.16 506
14.22 567
14.28 555
14.34 607
14.4 562
14.46 565
14.52 592
14.58 576
14.64 581
14.7 588
14.76 553
14.82 612
14.88 575
14.94 550
15 598
15.06 570
15.12 594
15.18 618
15.24 596
15.3 586
15.36 635
15.42 610
15.48 584
15.54 642
15.6 614
15.66 630
15.72 674
15.78 614
15.84 655
15.9 618
15.96 657
16.02 686
16.08 651
16.14 729
16.2 688
16.26 766
16.32 680
16.38 689
16.44 731
16.5 742
16.56 708
16.62 719
16.68 756
16.74 800
16.8 784
16.86 741
16.92 866
16.98 876
17.04 1014
17.1 902
17.16 797
17.22 780
17.28 803
17.34 822
17.4 832
17.46 860
17.52 888
17.58 806
17.64 855
17.7 884
17.76 877
17.82 893
17.88 880
17.94 876
18 917
18.06 942
18.12 911
18.18 951
18.24 927
18.3 944
18.36 980
18.42 972
18.48 974
18.54 901
18.6 1053
18.66 968
18.72 999
18.78 1004
18.84 1008
18.9 1018
18.96 1076
19.02 1016
19.08 1063
19.14 1065
19.2 1075
19.26 1087
19.32 1150
19.38 1141
19.44 1122
19.5 1198
19.56 1202
19.62 1193
19.68 1169
19.74 1195
19.8 1189
19.86 1217
19.92 1136
19.98 1157
20 1255

File: 36-38.ASC
3 2451
3.06 2268
3.12 2180
3.18 2070
3.24 1969
3.3 1784
3.36 1859
3.42 1754
3.48 1654
3.54 1640
3.6 1537
3.66 1501
3.72 1457
3.78 1441
3.84 1320
3.9 1294
3.96 1218
4.02 1235
4.08 1212
4.14 1146
4.2 1074
4.26 1063
4.32 1065
4.38 1060
4.44 1035
4.5 1010
4.56 1002
4.62 1005
4.68 984
4.74 986
4.8 982
4.86 942
4.92 1025
4.98 992
5.04 996
5.1 1035
5.16 1156
5.22 1197
5.28 1369
5.34 1583
5.4 2152
5.46 2266
5.52 1246
5.58 1006
5.64 911
5.7 852
5.76 827
5.82 795
5.88 783
5.94 748
6 718
6.06 701
6.12 682
6.18 683
6.24 677
6.3 699
6.36 649
6.42 625
6.48 628
6.54 671
6.6 645
6.66 692
6.72 610
6.78 622
6.84 635
6.9 587
6.96 609
7.02 626
7.08 575
7.14 611
7.2 585
7.26 629
7.32 607
7.38 570
7.44 575
7.5 590
7.56 594
7.62 586
7.68 584
7.74 563
7.8 542
7.86 581
7.92 591
7.98 557
8.04 547
8.1 557
8.16 553
8.22 552
8.28 535
8.34 549
8.4 499
8.46 510
8.52 540
8.58 546
8.64 565
8.7 521
8.76 535
8.82 472
8.88 578
8.94 547
9 572
9.06 578
9.12 600
9.18 634
9.24 651
9.3 829
9.36 1037
9.42 676
9.48 568
9.54 520
9.6 564
9.66 545
9.72 544
9.78 526
9.84 480
9.9 519
9.96 513
10.02 491
10.08 473
10.14 485
10.2 506
10.26 485
10.32 559
10.38 519
10.44 535
10.5 531
10.56 533
10.62 547
10.68 595
10.74 674
10.8 790
10.86 579
10.92 536
10.98 534
11.04 519
11.1 519
11.16 485
11.22 477
11.28 527
11.34 510
11.4 506
11.46 496
11.52 463
11.58 504
11.64 466
11.7 500
11.76 496
11.82 527
11.88 474
11.94 517
12 488
12.06 503
12.12 502
12.18 485
12.24 544
12.3 514
12.36 532
12.42 500
12.48 555
12.54 517
12.6 484
12.66 528
12.72 500
12.78 524
12.84 494
12.9 532
12.96 514
13.02 497
13.08 569
13.14 501
13.2 564
13.26 555
13.32 532
13.38 560
13.44 544
13.5 559
13.56 553
13.62 575
13.68 577
13.74 541
13.8 601
13.86 588
13.92 599
13.98 575
14.04 554
14.1 560
14.16 584
14.22 611
14.28 612
14.34 601
14.4 640
14.46 546
14.52 607
14.58 624
14.64 552
14.7 600
14.76 555
14.82 615
14.88 667
14.94 590
15 626
15.06 578
15.12 628
15.18 632
15.24 605
15.3 618
15.36 631
15.42 638
15.48 692
15.54 629
15.6 645
15.66 641
15.72 637
15.78 671
15.84 683
15.9 653
15.96 676
16.02 722
16.08 702
16.14 736
16.2 709
16.26 667
16.32 719
16.38 705
16.44 732
16.5 752
16.56 783
16.62 751
16.68 835
16.74 801
16.8 826
16.86 847
16.92 861
16.98 1093
17.04 1269
17.1 929
17.16 829
17.22 838
17.28 857
17.34 910
17.4 833
17.46 875
17.52 874
17.58 838
17.64 869
17.7 900
17.76 905
17.82 827
17.88 913
17.94 912
18 949
18.06 901
18.12 943
18.18 973
18.24 947
18.3 980
18.36 982
18.42 912
18.48 1005
18.54 1023
18.6 940
18.66 1006
18.72 1039
18.78 1062
18.84 1003
18.9 1016
18.96 980
19.02 1065
19.08 998
19.14 1081
19.2 1101
19.26 1160
19.32 1071
19.38 1147
19.44 1188
19.5 1219
19.56 1134
19.62 1142
19.68 1225
19.74 1131
19.8 1133
19.86 1135
19.92 1152
19.98 1147
20 1096

File: 36-39.ASC
3 1587
3.06 1388
3.12 1392
3.18 1349
3.24 1355
3.3 1306
3.36 1269
3.42 1186
3.48 1175
3.54 1130
3.6 1161
3.66 1120
3.72 1092
3.78 1084
3.84 1016
3.9 949
3.96 962
4.02 995
4.08 928
4.14 937
4.2 925
4.26 904
4.32 869
4.38 846
4.44 831
4.5 864
4.56 791
4.62 840
4.68 785
4.74 799
4.8 826
4.86 720
4.92 737
4.98 779
5.04 830
5.1 753
5.16 751
5.22 740
5.28 749
5.34 803
5.4 814
5.46 879
5.52 889
5.58 884
5.64 780
5.7 783
5.76 691
5.82 714
5.88 688
5.94 715
6 655
6.06 683
6.12 684
6.18 659
6.24 632
6.3 637
6.36 602
6.42 595
6.48 634
6.54 596
6.6 591
6.66 587
6.72 597
6.78 571
6.84 607
6.9 578
6.96 565
7.02 570
7.08 603
7.14 599
7.2 571
7.26 591
7.32 582
7.38 552
7.44 537
7.5 551
7.56 567
7.62 537
7.68 561
7.74 548
7.8 593
7.86 518
7.92 576
7.98 541
8.04 585
8.1 537
8.16 534
8.22 537
8.28 528
8.34 555
8.4 544
8.46 535
8.52 553
8.58 564
8.64 558
8.7 538
8.76 562
8.82 480
8.88 513
8.94 500
9 533
9.06 549
9.12 532
9.18 573
9.24 557
9.3 575
9.36 575
9.42 599
9.48 659
9.54 543
9.6 493
9.66 562
9.72 516
9.78 495
9.84 583
9.9 484
9.96 518
10.02 480
10.08 521
10.14 538
10.2 538
10.26 510
10.32 491
10.38 502
10.44 503
10.5 542
10.56 506
10.62 522
10.68 530
10.74 498
10.8 510
10.86 538
10.92 539
10.98 540
11.04 542
11.1 489
11.16 475
11.22 544
11.28 516
11.34 487
11.4 540
11.46 507
11.52 542
11.58 497
11.64 508
11.7 522
11.76 516
11.82 556
11.88 519
11.94 515
12 550
12.06 481
12.12 502
12.18 546
12.24 534
12.3 549
12.36 515
12.42 540
12.48 516
12.54 513
12.6 578
12.66 568
12.72 518
12.78 556
12.84 510
12.9 533
12.96 565
13.02 579
13.08 536
13.14 567
13.2 526
13.26 547
13.32 587
13.38 551
13.44 569
13.5 558
13.56 604
13.62 559
13.68 576
13.74 607
13.8 630
13.86 589
13.92 552
13.98 585
14.04 572
14.1 597
14.16 631
14.22 633
14.28 630
14.34 618
14.4 648
14.46 615
14.52 645
14.58 633
14.64 693
14.7 649
14.76 634
14.82 643
14.88 646
14.94 689
15 683
15.06 703
15.12 695
15.18 678
15.24 677
15.3 702
15.36 683
15.42 700
15.48 656
15.54 704
15.6 728
15.66 734
15.72 731
15.78 751
15.84 761
15.9 735
15.96 756
16.02 764
16.08 782
16.14 768
16.2 779
16.26 786
16.32 820
16.38 783
16.44 823
16.5 780
16.56 887
16.62 869
16.68 822
16.74 865
16.8 855
16.86 921
16.92 950
16.98 1065
17.04 1197
17.1 1206
17.16 1027
17.22 969
17.28 883
17.34 940
17.4 925
17.46 952
17.52 954
17.58 936
17.64 984
17.7 948
17.76 1009
17.82 971
17.88 1066
17.94 969
18 1059
18.06 976
18.12 1037
18.18 1060
18.24 1120
18.3 1000
18.36 1147
18.42 1041
18.48 1081
18.54 1148
18.6 1176
18.66 1179
18.72 1159
18.78 1190
18.84 1163
18.9 1232
18.96 1201
19.02 1195
19.08 1221
19.14 1191
19.2 1322
19.26 1253
19.32 1357
19.38 1241
19.44 1295
19.5 1372
19.56 1266
19.62 1340
19.68 1358
19.74 1327
19.8 1267
19.86 1345
19.92 1407
19.98 1338
20 1355

File: 37-1.ASC
3 1946
3.06 1599
3.12 1421
3.18 1400
3.24 1275
3.3 1347
3.36 1315
3.42 1217
3.48 1267
3.54 1202
3.6 1166
3.66 1158
3.72 1115
3.78 1203
3.84 1108
3.9 1129
3.96 1080
4.02 1133
4.08 1096
4.14 1021
4.2 1070
4.26 1094
4.32 1018
4.38 975
4.44 985
4.5 984
4.56 1034
4.62 980
4.68 987
4.74 914
4.8 973
4.86 947
4.92 933
4.98 922
5.04 938
5.1 937
5.16 920
5.22 874
5.28 879
5.34 854
5.4 864
5.46 916
5.52 923
5.58 856
5.64 799
5.7 842
5.76 870
5.82 829
5.88 795
5.94 769
6 788
6.06 734
6.12 715
6.18 740
6.24 745
6.3 690
6.36 660
6.42 703
6.48 667
6.54 643
6.6 634
6.66 620
6.72 617
6.78 603
6.84 621
6.9 634
6.96 602
7.02 603
7.08 570
7.14 608
7.2 567
7.26 566
7.32 589
7.38 555
7.44 494
7.5 513
7.56 595
7.62 519
7.68 492
7.74 524
7.8 497
7.86 529
7.92 499
7.98 540
8.04 552
8.1 516
8.16 506
8.22 471
8.28 513
8.34 516
8.4 511
8.46 505
8.52 459
8.58 518
8.64 475
8.7 467
8.76 473
8.82 461
8.88 516
8.94 500
9 492
9.06 462
9.12 483
9.18 468
9.24 501
9.3 510
9.36 498
9.42 540
9.48 472
9.54 487
9.6 493
9.66 487
9.72 486
9.78 460
9.84 493
9.9 491
9.96 441
10.02 491
10.08 465
10.14 467
10.2 439
10.26 429
10.32 454
10.38 446
10.44 445
10.5 425
10.56 407
10.62 418
10.68 444
10.74 455
10.8 438
10.86 423
10.92 436
10.98 434
11.04 420
11.1 449
11.16 450
11.22 416
11.28 404
11.34 436
11.4 431
11.46 426
11.52 445
11.58 425
11.64 422
11.7 460
11.76 444
11.82 405
11.88 411
11.94 427
12 402
12.06 417
12.12 415
12.18 398
12.24 399
12.3 440
12.36 410
12.42 409
12.48 405
12.54 399
12.6 405
12.66 439
12.72 400
12.78 423
12.84 437
12.9 445
12.96 436
13.02 388
13.08 416
13.14 455
13.2 447
13.26 465
13.32 457
13.38 445
13.44 436
13.5 447
13.56 409
13.62 454
13.68 431
13.74 442
13.8 457
13.86 430
13.92 449
13.98 448
14.04 437
14.1 467
14.16 447
14.22 478
14.28 449
14.34 458
14.4 447
14.46 441
14.52 486
14.58 460
14.64 464
14.7 462
14.76 479
14.82 463
14.88 479
14.94 488
15 475
15.06 451
15.12 460
15.18 461
15.24 490
15.3 459
15.36 507
15.42 493
15.48 449
15.54 467
15.6 452
15.66 522
15.72 493
15.78 504
15.84 512
15.9 483
15.96 499
16.02 496
16.08 495
16.14 505
16.2 500
16.26 522
16.32 512
16.38 529
16.44 549
16.5 501
16.56 499
16.62 543
16.68 528
16.74 546
16.8 522
16.86 586
16.92 618
16.98 660
17.04 733
17.1 655
17.16 599
17.22 627
17.28 562
17.34 565
17.4 616
17.46 630
17.52 638
17.58 567
17.64 558
17.7 587
17.76 573
17.82 582
17.88 571
17.94 599
18 587
18.06 588
18.12 644
18.18 610
18.24 615
18.3 609
18.36 647
18.42 681
18.48 669
18.54 596
18.6 645
18.66 711
18.72 702
18.78 664
18.84 663
18.9 633
18.96 686
19.02 684
19.08 667
19.14 684
19.2 690
19.26 722
19.32 680
19.38 713
19.44 735
19.5 756
19.56 725
19.62 689
19.68 702
19.74 683
19.8 659
19.86 795
19.92 749
19.98 712
20 757