Folder: CPC-code/xrd-UiO-67/pxrddata (part 2)

File: 3-19.ASC
3 2001
3.1 1587
3.2 1556
3.3 1369
3.4 1370
3.5 1336
3.6 1301
3.7 1160
3.8 1245
3.9 1112
4 1060
4.1 954
4.2 974
4.3 968
4.4 974
4.5 936
4.6 869
4.7 861
4.8 843
4.9 855
5 840
5.1 830
5.2 826
5.3 864
5.4 827
5.5 918
5.6 1004
5.7 1266
5.8 2105
5.9 737
6 673
6.1 612
6.2 651
6.3 656
6.4 726
6.5 766
6.6 915
6.7 994
6.8 623
6.9 568
7 555
7.1 573
7.2 549
7.3 504
7.4 563
7.5 535
7.6 551
7.7 535
7.8 525
7.9 531
8 543
8.1 530
8.2 533
8.3 509
8.4 514
8.5 549
8.6 487
8.7 502
8.8 537
8.9 489
9 503
9.1 590
9.2 583
9.3 743
9.4 1217
9.5 530
9.6 487
9.7 493
9.8 497
9.9 519
10 499
10.1 485
10.2 517
10.3 487
10.4 481
10.5 456
10.6 517
10.7 548
10.8 591
10.9 685
11 1232
11.1 517
11.2 481
11.3 525
11.4 637
11.5 824
11.6 486
11.7 474
11.8 506
11.9 470
12 487
12.1 508
12.2 494
12.3 471
12.4 511
12.5 469
12.6 482
12.7 478
12.8 481
12.9 479
13 527
13.1 515
13.2 590
13.3 568
13.4 506
13.5 529
13.6 489
13.7 514
13.8 471
13.9 569
14 489
14.1 522
14.2 527
14.3 530
14.4 590
14.5 543
14.6 537
14.7 541
14.8 573
14.9 549
15 572
15.1 554
15.2 570
15.3 600
15.4 596
15.5 535
15.6 619
15.7 596
15.8 620
15.9 598
16 572
16.1 578
16.2 593
16.3 646
16.4 686
16.5 629
16.6 684
16.7 637
16.8 680
16.9 669
17 697
17.1 734
17.2 837
17.3 699
17.4 724
17.5 709
17.6 752
17.7 745
17.8 767
17.9 783
18 773
18.1 755
18.2 798
18.3 758
18.4 803
18.5 829
18.6 814
18.7 831
18.8 818
18.9 858
19 872
19.1 814
19.2 897
19.3 934
19.4 908
19.5 1028
19.6 1370
19.7 1096
19.8 1081
19.9 1666
20 1007
20.1 940
20.2 960
20.3 930
20.4 991
20.5 942
20.6 1017
20.7 943
20.8 912
20.9 1001
21 1028
21.1 1027
21.2 1013
21.3 969
21.4 974
21.5 969
21.6 1057
21.7 1134
21.8 1174
21.9 1058
22 1040
22.1 961
22.2 1068
22.3 1044
22.4 992
22.5 1045
22.6 1112
22.7 1049
22.8 1038
22.9 1095
23 1193
23.1 1090
23.2 1087
23.3 1078
23.4 1018
23.5 1044
23.6 1149
23.7 1687
23.8 1227
23.9 1139
24 1140
24.1 1050
24.2 1004
24.3 955
24.4 1066
24.5 1044
24.6 1009
24.7 1065
24.8 1198
24.9 1341
25 1041
25.1 996
25.2 1000
25.3 1085
25.4 1086
25.5 1635
25.6 1319
25.7 980
25.8 1034
25.9 1002
26 1020
26.1 971
26.2 1057
26.3 966
26.4 1002
26.5 1015
26.6 1416
26.7 1092
26.8 944
26.9 934
27 951
27.1 952
27.2 998
27.3 962
27.4 1385
27.5 1210
27.6 953
27.7 914
27.8 895
27.9 931
28 954
28.1 903
28.2 1050
28.3 997
28.4 894
28.5 905
28.6 901
28.7 965
28.8 1250
28.9 1186
29 1195
29.1 1065
29.2 952
29.3 954
29.4 911
29.5 929
29.6 916
29.7 968
29.8 892
29.9 892
30 903

File: 4-31.ASC
3 1954
3.1 1441
3.2 1293
3.3 1231
3.4 1208
3.5 1172
3.6 1073
3.7 1042
3.8 1050
3.9 990
4 982
4.1 877
4.2 933
4.3 943
4.4 925
4.5 974
4.6 997
4.7 985
4.8 948
4.9 987
5 1077
5.1 1116
5.2 1255
5.3 1378
5.4 1572
5.5 1968
5.6 2549
5.7 4379
5.8 3253
5.9 1709
6 1728
6.1 1392
6.2 1185
6.3 1358
6.4 1541
6.5 1957
6.6 3167
6.7 1803
6.8 1388
6.9 1326
7 1230
7.1 1175
7.2 1178
7.3 1180
7.4 1120
7.5 1075
7.6 1034
7.7 948
7.8 834
7.9 828
8 840
8.1 791
8.2 788
8.3 829
8.4 821
8.5 821
8.6 769
8.7 786
8.8 787
8.9 885
9 889
9.1 1056
9.2 1316
9.3 2011
9.4 1955
9.5 992
9.6 979
9.7 796
9.8 763
9.9 777
10 726
10.1 763
10.2 706
10.3 761
10.4 786
10.5 812
10.6 876
10.7 1005
10.8 1212
10.9 1831
11 2042
11.1 967
11.2 1027
11.3 1102
11.4 1400
11.5 1243
11.6 849
11.7 875
11.8 845
11.9 860
12 801
12.1 810
12.2 764
12.3 774
12.4 725
12.5 771
12.6 767
12.7 784
12.8 763
12.9 803
13 820
13.1 840
13.2 1009
13.3 853
13.4 817
13.5 784
13.6 809
13.7 828
13.8 852
13.9 865
14 853
14.1 841
14.2 844
14.3 985
14.4 1086
14.5 884
14.6 838
14.7 936
14.8 846
14.9 836
15 850
15.1 889
15.2 862
15.3 944
15.4 932
15.5 985
15.6 923
15.7 932
15.8 955
15.9 944
16 995
16.1 992
16.2 971
16.3 1050
16.4 992
16.5 991
16.6 1002
16.7 1035
16.8 1140
16.9 1093
17 1162
17.1 1186
17.2 1345
17.3 1191
17.4 1203
17.5 1172
17.6 1196
17.7 1168
17.8 1193
17.9 1213
18 1305
18.1 1265
18.2 1266
18.3 1257
18.4 1305
18.5 1366
18.6 1328
18.7 1343
18.8 1438
18.9 1371
19 1361
19.1 1368
19.2 1550
19.3 1547
19.4 1604
19.5 1882
19.6 2112
19.7 1803
19.8 2216
19.9 2195
20 1617
20.1 1543
20.2 1575
20.3 1494
20.4 1551
20.5 1663
20.6 1568
20.7 1601
20.8 1603
20.9 1546
21 1602
21.1 1586
21.2 1541
21.3 1548
21.4 1654
21.5 1547
21.6 1715
21.7 1755
21.8 1718
21.9 1590
22 1625
22.1 1487
22.2 1551
22.3 1502
22.4 1528
22.5 1513
22.6 1461
22.7 1459
22.8 1428
22.9 1534
23 1493
23.1 1458
23.2 1468
23.3 1440
23.4 1413
23.5 1501
23.6 1664
23.7 2032
23.8 1554
23.9 1515
24 1336
24.1 1316
24.2 1252
24.3 1327
24.4 1260
24.5 1254
24.6 1234
24.7 1237
24.8 1568
24.9 1408
25 1228
25.1 1196
25.2 1145
25.3 1214
25.4 1410
25.5 1856
25.6 1260
25.7 1150
25.8 1111
25.9 1097
26 1062
26.1 1025
26.2 1078
26.3 1049
26.4 1014
26.5 1251
26.6 1356
26.7 1041
26.8 976
26.9 958
27 995
27.1 928
27.2 1022
27.3 1148
27.4 1385
27.5 1121
27.6 917
27.7 903
27.8 914
27.9 893
28 902
28.1 919
28.2 997
28.3 888
28.4 818
28.5 909
28.6 846
28.7 896
28.8 1204
28.9 1022
29 1198
29.1 949
29.2 818
29.3 799
29.4 809
29.5 753
29.6 735
29.7 758
29.8 750
29.9 781
30 807

File: 4-32.ASC
3 2365
3.1 1688
3.2 1570
3.3 1491
3.4 1455
3.5 1574
3.6 1368
3.7 1219
3.8 1123
3.9 1125
4 1036
4.1 1044
4.2 1042
4.3 976
4.4 902
4.5 954
4.6 950
4.7 925
4.8 915
4.9 1010
5 1012
5.1 1128
5.2 1239
5.3 1472
5.4 1836
5.5 2013
5.6 2576
5.7 3954
5.8 3348
5.9 1264
6 1070
6.1 1030
6.2 1015
6.3 1157
6.4 1377
6.5 1702
6.6 2645
6.7 1468
6.8 1019
6.9 1086
7 1181
7.1 1111
7.2 1217
7.3 1370
7.4 1637
7.5 1047
7.6 914
7.7 875
7.8 864
7.9 827
8 848
8.1 841
8.2 878
8.3 872
8.4 858
8.5 894
8.6 901
8.7 842
8.8 811
8.9 914
9 1007
9.1 1036
9.2 1286
9.3 1896
9.4 1944
9.5 919
9.6 856
9.7 876
9.8 863
9.9 888
10 895
10.1 903
10.2 881
10.3 864
10.4 894
10.5 893
10.6 923
10.7 1067
10.8 1258
10.9 1558
11 2117
11.1 994
11.2 1011
11.3 1057
11.4 1268
11.5 1398
11.6 960
11.7 974
11.8 979
11.9 1024
12 1009
12.1 1004
12.2 971
12.3 941
12.4 953
12.5 974
12.6 1022
12.7 940
12.8 1015
12.9 1004
13 1048
13.1 1026
13.2 1168
13.3 1083
13.4 1034
13.5 1054
13.6 1036
13.7 1097
13.8 1121
13.9 1135
14 1085
14.1 1187
14.2 1158
14.3 1142
14.4 1319
14.5 1221
14.6 1209
14.7 1165
14.8 1192
14.9 1195
15 1219
15.1 1256
15.2 1276
15.3 1266
15.4 1303
15.5 1295
15.6 1333
15.7 1312
15.8 1353
15.9 1357
16 1398
16.1 1376
16.2 1445
16.3 1369
16.4 1430
16.5 1386
16.6 1507
16.7 1532
16.8 1565
16.9 1603
17 1634
17.1 1665
17.2 1740
17.3 1768
17.4 1691
17.5 1674
17.6 1769
17.7 1786
17.8 1675
17.9 1831
18 1866
18.1 1794
18.2 1831
18.3 1774
18.4 1835
18.5 1927
18.6 1989
18.7 2002
18.8 2038
18.9 2057
19 2048
19.1 2103
19.2 2081
19.3 2115
19.4 2238
19.5 2293
19.6 2615
19.7 2217
19.8 2338
19.9 2790
20 2217
20.1 2161
20.2 2178
20.3 2195
20.4 2148
20.5 2205
20.6 2256
20.7 2179
20.8 2257
20.9 2253
21 2244
21.1 2231
21.2 2151
21.3 2199
21.4 2218
21.5 2200
21.6 2202
21.7 2328
21.8 2382
21.9 2183
22 2175
22.1 2208
22.2 2223
22.3 2218
22.4 2240
22.5 2080
22.6 2095
22.7 2173
22.8 2119
22.9 2031
23 2198
23.1 2104
23.2 2006
23.3 1966
23.4 2020
23.5 2099
23.6 2163
23.7 2537
23.8 2039
23.9 2128
24 1979
24.1 1916
24.2 1944
24.3 1945
24.4 1892
24.5 1889
24.6 1906
24.7 1867
24.8 2023
24.9 1925
25 1814
25.1 1890
25.2 1765
25.3 1841
25.4 1838
25.5 2161
25.6 1895
25.7 1791
25.8 1772
25.9 1762
26 1739
26.1 1710
26.2 1691
26.3 1654
26.4 1691
26.5 1656
26.6 1837
26.7 1642
26.8 1638
26.9 1549
27 1673
27.1 1655
27.2 1633
27.3 1629
27.4 1832
27.5 1650
27.6 1544
27.7 1484
27.8 1507
27.9 1498
28 1526
28.1 1478
28.2 1490
28.3 1417
28.4 1513
28.5 1468
28.6 1405
28.7 1402
28.8 1567
28.9 1457
29 1610
29.1 1444
29.2 1398
29.3 1388
29.4 1407
29.5 1292
29.6 1353
29.7 1309
29.8 1245
29.9 1287
30 1230

File: 4-33.ASC
3 2171
3.1 1565
3.2 1406
3.3 1342
3.4 1282
3.5 1258
3.6 1166
3.7 1231
3.8 1119
3.9 1093
4 1048
4.1 1033
4.2 1032
4.3 951
4.4 1003
4.5 994
4.6 1003
4.7 923
4.8 943
4.9 937
5 931
5.1 1007
5.2 983
5.3 970
5.4 1050
5.5 1001
5.6 1097
5.7 1215
5.8 1477
5.9 1058
6 1115
6.1 961
6.2 991
6.3 1014
6.4 1107
6.5 1100
6.6 1242
6.7 1232
6.8 1070
6.9 1023
7 1049
7.1 1056
7.2 1060
7.3 1037
7.4 1107
7.5 1109
7.6 1081
7.7 1065
7.8 1054
7.9 1084
8 1076
8.1 1060
8.2 1073
8.3 1060
8.4 1097
8.5 1146
8.6 1088
8.7 1165
8.8 1165
8.9 1140
9 1114
9.1 1178
9.2 1202
9.3 1286
9.4 1574
9.5 1133
9.6 1151
9.7 1133
9.8 1138
9.9 1153
10 1174
10.1 1114
10.2 1269
10.3 1195
10.4 1203
10.5 1227
10.6 1205
10.7 1315
10.8 1295
10.9 1430
11 1716
11.1 1235
11.2 1301
11.3 1272
11.4 1376
11.5 1572
11.6 1185
11.7 1333
11.8 1250
11.9 1296
12 1344
12.1 1368
12.2 1324
12.3 1306
12.4 1369
12.5 1391
12.6 1322
12.7 1385
12.8 1406
12.9 1429
13 1449
13.1 1443
13.2 1576
13.3 1578
13.4 1529
13.5 1447
13.6 1548
13.7 1584
13.8 1524
13.9 1546
14 1571
14.1 1615
14.2 1677
14.3 1727
14.4 1749
14.5 1708
14.6 1768
14.7 1669
14.8 1761
14.9 1810
15 1798
15.1 1845
15.2 1864
15.3 1854
15.4 1945
15.5 1966
15.6 2027
15.7 2028
15.8 1923
15.9 2063
16 2122
16.1 2110
16.2 2099
16.3 2132
16.4 2235
16.5 2219
16.6 2250
16.7 2377
16.8 2305
16.9 2383
17 2401
17.1 2391
17.2 2628
17.3 2631
17.4 2580
17.5 2650
17.6 2675
17.7 2629
17.8 2760
17.9 2719
18 2819
18.1 2927
18.2 2829
18.3 2972
18.4 3041
18.5 2985
18.6 3077
18.7 3194
18.8 3066
18.9 3229
19 3105
19.1 3274
19.2 3308
19.3 3258
19.4 3323
19.5 3465
19.6 3660
19.7 3574
19.8 3569
19.9 4040
20 3489
20.1 3511
20.2 3406
20.3 3457
20.4 3523
20.5 3578
20.6 3523
20.7 3552
20.8 3609
20.9 3522
21 3464
21.1 3521
21.2 3483
21.3 3507
21.4 3387
21.5 3403
21.6 3489
21.7 3568
21.8 3525
21.9 3375
22 3423
22.1 3330
22.2 3300
22.3 3243
22.4 3316
22.5 3251
22.6 3273
22.7 3135
22.8 3210
22.9 3162
23 3214
23.1 3078
23.2 3203
23.3 2997
23.4 3074
23.5 3090
23.6 2940
23.7 3387
23.8 3050
23.9 2895
24 2940
24.1 2842
24.2 2653
24.3 2761
24.4 2812
24.5 2808
24.6 2691
24.7 2680
24.8 2723
24.9 2810
25 2608
25.1 2574
25.2 2468
25.3 2497
25.4 2541
25.5 2847
25.6 2736
25.7 2421
25.8 2373
25.9 2364
26 2299
26.1 2259
26.2 2280
26.3 2317
26.4 2250
26.5 2306
26.6 2541
26.7 2235
26.8 2249
26.9 2103
27 2109
27.1 2126
27.2 2080
27.3 2156
27.4 2271
27.5 2196
27.6 1986
27.7 1956
27.8 1958
27.9 1912
28 1884
28.1 1841
28.2 2007
28.3 2045
28.4 1842
28.5 1863
28.6 1785
28.7 1853
28.8 2047
28.9 2010
29 2024
29.1 1922
29.2 1795
29.3 1721
29.4 1665
29.5 1715
29.6 1660
29.7 1714
29.8 1648
29.9 1676
30 1587

File: 4-34.ASC
3 1923
3.1 1400
3.2 1372
3.3 1369
3.4 1194
3.5 1230
3.6 1187
3.7 1175
3.8 1104
3.9 1086
4 1149
4.1 1045
4.2 1015
4.3 1014
4.4 1001
4.5 998
4.6 994
4.7 957
4.8 995
4.9 933
5 948
5.1 922
5.2 922
5.3 935
5.4 980
5.5 957
5.6 1041
5.7 1079
5.8 1030
5.9 1696
6 1048
6.1 1085
6.2 1041
6.3 1032
6.4 1054
6.5 1048
6.6 1055
6.7 1065
6.8 1053
6.9 1083
7 1041
7.1 1105
7.2 1053
7.3 1049
7.4 1088
7.5 1140
7.6 1115
7.7 1125
7.8 1145
7.9 1059
8 1099
8.1 1106
8.2 1064
8.3 1147
8.4 1064
8.5 1085
8.6 1069
8.7 1095
8.8 1106
8.9 1114
9 1076
9.1 1142
9.2 1132
9.3 1124
9.4 1103
9.5 1148
9.6 1092
9.7 1167
9.8 1076
9.9 1135
10 1101
10.1 1156
10.2 1156
10.3 1126
10.4 1134
10.5 1100
10.6 1102
10.7 1121
10.8 1152
10.9 1172
11 1176
11.1 1144
11.2 1174
11.3 1183
11.4 1186
11.5 1284
11.6 1211
11.7 1204
11.8 1242
11.9 1215
12 1219
12.1 1279
12.2 1272
12.3 1199
12.4 1239
12.5 1271
12.6 1287
12.7 1353
12.8 1301
12.9 1256
13 1333
13.1 1301
13.2 1344
13.3 1388
13.4 1404
13.5 1312
13.6 1409
13.7 1410
13.8 1425
13.9 1455
14 1488
14.1 1501
14.2 1461
14.3 1553
14.4 1507
14.5 1632
14.6 1574
14.7 1605
14.8 1625
14.9 1581
15 1621
15.1 1636
15.2 1701
15.3 1684
15.4 1716
15.5 1765
15.6 1803
15.7 1834
15.8 1863
15.9 1829
16 1782
16.1 1921
16.2 1893
16.3 1901
16.4 1977
16.5 1942
16.6 2003
16.7 2038
16.8 2103
16.9 2195
17 2288
17.1 2225
17.2 2267
17.3 2300
17.4 2247
17.5 2363
17.6 2420
17.7 2357
17.8 2483
17.9 2455
18 2503
18.1 2599
18.2 2532
18.3 2647
18.4 2596
18.5 2709
18.6 2665
18.7 2704
18.8 2712
18.9 2866
19 2850
19.1 2932
19.2 2845
19.3 2933
19.4 3021
19.5 3075
19.6 3245
19.7 3071
19.8 3047
19.9 3050
20 3111
20.1 3114
20.2 3174
20.3 3185
20.4 3065
20.5 3294
20.6 3194
20.7 3167
20.8 3210
20.9 3190
21 3186
21.1 3130
21.2 3324
21.3 3129
21.4 3091
21.5 3089
21.6 3133
21.7 3186
21.8 3079
21.9 3097
22 3102
22.1 3038
22.2 2907
22.3 3048
22.4 3035
22.5 2968
22.6 2902
22.7 2981
22.8 2969
22.9 2788
23 2958
23.1 2810
23.2 2815
23.3 2752
23.4 2753
23.5 2785
23.6 2777
23.7 2824
23.8 2689
23.9 2659
24 2649
24.1 2572
24.2 2540
24.3 2492
24.4 2597
24.5 2429
24.6 2382
24.7 2436
24.8 2368
24.9 2381
25 2349
25.1 2337
25.2 2385
25.3 2382
25.4 2307
25.5 2323
25.6 2285
25.7 2194
25.8 2197
25.9 2201
26 2107
26.1 2041
26.2 1944
26.3 2101
26.4 2053
26.5 2092
26.6 2127
26.7 2039
26.8 2024
26.9 2067
27 2051
27.1 2035
27.2 1950
27.3 1920
27.4 1916
27.5 1912
27.6 1860
27.7 1859
27.8 1788
27.9 1766
28 1814
28.1 1769
28.2 1822
28.3 1840
28.4 1700
28.5 1731
28.6 1735
28.7 1756
28.8 1815
28.9 1809
29 1741
29.1 1692
29.2 1645
29.3 1629
29.4 1620
29.5 1560
29.6 1556
29.7 1529
29.8 1588
29.9 1527
30 1504

File: 4-35.ASC
3 2148
3.1 1681
3.2 1518
3.3 1557
3.4 1440
3.5 1370
3.6 1265
3.7 1285
3.8 1240
3.9 1251
4 1157
4.1 1149
4.2 1137
4.3 1079
4.4 1090
4.5 1028
4.6 1073
4.7 1039
4.8 985
4.9 1045
5 996
5.1 962
5.2 973
5.3 1017
5.4 987
5.5 986
5.6 991
5.7 991
5.8 994
5.9 1046
6 1016
6.1 949
6.2 1026
6.3 1014
6.4 973
6.5 1013
6.6 1018
6.7 1099
6.8 1050
6.9 1031
7 1009
7.1 1005
7.2 1107
7.3 1047
7.4 1094
7.5 1090
7.6 1031
7.7 1086
7.8 1046
7.9 1023
8 1038
8.1 1027
8.2 1041
8.3 1071
8.4 1073
8.5 1082
8.6 1084
8.7 1061
8.8 1119
8.9 1073
9 1108
9.1 1118
9.2 1083
9.3 1098
9.4 1070
9.5 1126
9.6 1111
9.7 1037
9.8 1085
9.9 1105
10 1126
10.1 1054
10.2 1108
10.3 1097
10.4 1067
10.5 1083
10.6 1164
10.7 1154
10.8 1145
10.9 1099
11 1162
11.1 1149
11.2 1126
11.3 1143
11.4 1145
11.5 1252
11.6 1117
11.7 1127
11.8 1085
11.9 1202
12 1187
12.1 1234
12.2 1191
12.3 1210
12.4 1219
12.5 1219
12.6 1280
12.7 1215
12.8 1275
12.9 1267
13 1279
13.1 1324
13.2 1321
13.3 1356
13.4 1266
13.5 1335
13.6 1365
13.7 1260
13.8 1331
13.9 1348
14 1446
14.1 1387
14.2 1400
14.3 1487
14.4 1502
14.5 1461
14.6 1468
14.7 1510
14.8 1561
14.9 1499
15 1531
15.1 1624
15.2 1600
15.3 1651
15.4 1688
15.5 1676
15.6 1706
15.7 1767
15.8 1729
15.9 1816
16 1797
16.1 1862
16.2 1921
16.3 1917
16.4 1949
16.5 1981
16.6 2046
16.7 2189
16.8 2431
16.9 3236
17 6523
17.1 9640
17.2 2492
17.3 2344
17.4 2305
17.5 2255
17.6 2391
17.7 2386
17.8 2297
17.9 2392
18 2478
18.1 2447
18.2 2491
18.3 2573
18.4 2619
18.5 2660
18.6 2693
18.7 2743
18.8 2737
18.9 2848
19 2814
19.1 2846
19.2 2830
19.3 2907
19.4 2947
19.5 2927
19.6 3019
19.7 2920
19.8 3041
19.9 3066
20 3005
20.1 3032
20.2 3064
20.3 3130
20.4 3134
20.5 3097
20.6 3139
20.7 3212
20.8 3164
20.9 3224
21 3126
21.1 3213
21.2 3123
21.3 3226
21.4 3203
21.5 3141
21.6 3156
21.7 3052
21.8 3086
21.9 3130
22 3187
22.1 3026
22.2 3024
22.3 3091
22.4 3091
22.5 2918
22.6 2980
22.7 3046
22.8 2915
22.9 2883
23 2884
23.1 2870
23.2 2895
23.3 2854
23.4 2797
23.5 2818
23.6 2789
23.7 2760
23.8 2690
23.9 2694
24 2649
24.1 2646
24.2 2687
24.3 2728
24.4 2961
24.5 3140
24.6 3202
24.7 2854
24.8 2661
24.9 2550
25 2584
25.1 2726
25.2 3392
25.3 4205
25.4 3374
25.5 2688
25.6 2360
25.7 2302
25.8 2308
25.9 2293
26 2260
26.1 2265
26.2 2166
26.3 2090
26.4 2267
26.5 2316
26.6 2347
26.7 2753
26.8 2978
26.9 3503
27 3072
27.1 2407
27.2 2118
27.3 2079
27.4 2073
27.5 2036
27.6 1978
27.7 2014
27.8 1959
27.9 1888
28 1933
28.1 1961
28.2 2009
28.3 1902
28.4 1824
28.5 1867
28.6 1909
28.7 1895
28.8 1797
28.9 1874
29 1859
29.1 1915
29.2 2033
29.3 1989
29.4 1809
29.5 1749
29.6 1678
29.7 1712
29.8 1702
29.9 1643
30 1682

File: 4-36.ASC
3 1718
3.1 1386
3.2 1238
3.3 1189
3.4 1168
3.5 1164
3.6 1089
3.7 1081
3.8 1115
3.9 1123
4 1189
4.1 1334
4.2 1306
4.3 1090
4.4 963
4.5 940
4.6 950
4.7 967
4.8 1026
4.9 1069
5 1296
5.1 1417
5.2 1680
5.3 2308
5.4 3426
5.5 4552
5.6 3055
5.7 3669
5.8 5254
5.9 3754
6 1214
6.1 931
6.2 958
6.3 899
6.4 908
6.5 960
6.6 923
6.7 1099
6.8 1248
6.9 1072
7 794
7.1 823
7.2 746
7.3 782
7.4 771
7.5 774
7.6 740
7.7 765
7.8 714
7.9 783
8 838
8.1 826
8.2 825
8.3 788
8.4 738
8.5 706
8.6 757
8.7 755
8.8 783
8.9 835
9 902
9.1 1022
9.2 1341
9.3 2005
9.4 2338
9.5 1127
9.6 825
9.7 792
9.8 872
9.9 775
10 862
10.1 961
10.2 1209
10.3 989
10.4 837
10.5 831
10.6 899
10.7 1047
10.8 1363
10.9 1452
11 1721
11.1 1093
11.2 812
11.3 794
11.4 908
11.5 1064
11.6 1025
11.7 849
11.8 796
11.9 793
12 787
12.1 856
12.2 897
12.3 952
12.4 815
12.5 828
12.6 824
12.7 749
12.8 798
12.9 799
13 816
13.1 838
13.2 837
13.3 849
13.4 877
13.5 849
13.6 883
13.7 849
13.8 818
13.9 799
14 843
14.1 882
14.2 871
14.3 941
14.4 937
14.5 922
14.6 889
14.7 865
14.8 985
14.9 997
15 972
15.1 956
15.2 1014
15.3 1010
15.4 1015
15.5 976
15.6 933
15.7 984
15.8 1034
15.9 1044
16 1079
16.1 1043
16.2 1140
16.3 1198
16.4 1128
16.5 1147
16.6 1127
16.7 1107
16.8 1098
16.9 1157
17 1217
17.1 1257
17.2 1219
17.3 1330
17.4 1295
17.5 1261
17.6 1279
17.7 1295
17.8 1372
17.9 1419
18 1398
18.1 1312
18.2 1394
18.3 1336
18.4 1428
18.5 1400
18.6 1450
18.7 1516
18.8 1593
18.9 1575
19 1604
19.1 1715
19.2 1763
19.3 1639
19.4 1653
19.5 1856
19.6 2014
19.7 1721
19.8 1621
19.9 1852
20 1690
20.1 1711
20.2 1819
20.3 1857
20.4 1714
20.5 1739
20.6 1701
20.7 1774
20.8 1772
20.9 1709
21 1698
21.1 1756
21.2 1833
21.3 1763
21.4 1668
21.5 1801
21.6 1758
21.7 1796
21.8 1773
21.9 1778
22 1902
22.1 1822
22.2 1709
22.3 1758
22.4 1701
22.5 1789
22.6 1746
22.7 1655
22.8 1691
22.9 1747
23 1682
23.1 1836
23.2 1791
23.3 1700
23.4 1557
23.5 1651
23.6 1856
23.7 1785
23.8 1591
23.9 1607
24 1596
24.1 1523
24.2 1505
24.3 1464
24.4 1439
24.5 1603
24.6 1665
24.7 1641
24.8 1826
24.9 1650
25 1535
25.1 1658
25.2 1604
25.3 1450
25.4 1525
25.5 1549
25.6 1616
25.7 1483
25.8 1401
25.9 1445
26 1377
26.1 1341
26.2 1380
26.3 1431
26.4 1362
26.5 1322
26.6 1308
26.7 1316
26.8 1409
26.9 1459
27 1473
27.1 1568
27.2 1629
27.3 1424
27.4 1390
27.5 1286
27.6 1221
27.7 1388
27.8 1376
27.9 1309
28 1262
28.1 1270
28.2 1359
28.3 1459
28.4 1350
28.5 1442
28.6 1327
28.7 1457
28.8 1519
28.9 1339
29 1265
29.1 1193
29.2 1234
29.3 1166
29.4 1155
29.5 1164
29.6 1056
29.7 1135
29.8 1266
29.9 1378
30 1147

File: 4-37.ASC
3 2166
3.1 1657
3.2 1524
3.3 1472
3.4 1409
3.5 1419
3.6 1337
3.7 1313
3.8 1254
3.9 1260
4 1337
4.1 1306
4.2 1283
4.3 1198
4.4 1109
4.5 1138
4.6 1071
4.7 1131
4.8 1106
4.9 1082
5 1179
5.1 1138
5.2 1225
5.3 1421
5.4 1578
5.5 1874
5.6 1478
5.7 1805
5.8 2639
5.9 1518
6 994
6.1 960
6.2 949
6.3 938
6.4 963
6.5 891
6.6 958
6.7 1006
6.8 1061
6.9 857
7 807
7.1 866
7.2 833
7.3 850
7.4 820
7.5 865
7.6 884
7.7 771
7.8 819
7.9 797
8 824
8.1 823
8.2 917
8.3 848
8.4 826
8.5 815
8.6 814
8.7 849
8.8 876
8.9 825
9 870
9.1 910
9.2 939
9.3 1100
9.4 1472
9.5 929
9.6 891
9.7 898
9.8 945
9.9 968
10 925
10.1 981
10.2 1097
10.3 900
10.4 883
10.5 870
10.6 893
10.7 895
10.8 1058
10.9 1057
11 1284
11.1 924
11.2 926
11.3 881
11.4 836
11.5 989
11.6 1002
11.7 915
11.8 853
11.9 860
12 912
12.1 857
12.2 902
12.3 948
12.4 850
12.5 890
12.6 936
12.7 878
12.8 903
12.9 893
13 910
13.1 901
13.2 915
13.3 908
13.4 958
13.5 934
13.6 947
13.7 948
13.8 969
13.9 971
14 961
14.1 1003
14.2 964
14.3 989
14.4 1012
14.5 968
14.6 1018
14.7 973
14.8 1039
14.9 1103
15 1016
15.1 1003
15.2 1122
15.3 1083
15.4 1086
15.5 1109
15.6 1113
15.7 1109
15.8 1155
15.9 1077
16 1153
16.1 1142
16.2 1147
16.3 1247
16.4 1213
16.5 1239
16.6 1290
16.7 1245
16.8 1253
16.9 1311
17 1669
17.1 1433
17.2 1275
17.3 1378
17.4 1331
17.5 1327
17.6 1393
17.7 1361
17.8 1408
17.9 1417
18 1413
18.1 1456
18.2 1462
18.3 1487
18.4 1438
18.5 1510
18.6 1557
18.7 1626
18.8 1579
18.9 1571
19 1671
19.1 1722
19.2 1707
19.3 1564
19.4 1682
19.5 1759
19.6 1935
19.7 1729
19.8 1713
19.9 1840
20 1748
20.1 1693
20.2 1849
20.3 1851
20.4 1791
20.5 1785
20.6 1756
20.7 1813
20.8 1898
20.9 1823
21 1866
21.1 1871
21.2 1940
21.3 1868
21.4 1883
21.5 1883
21.6 1783
21.7 1863
21.8 1924
21.9 1917
22 1973
22.1 1935
22.2 1851
22.3 1866
22.4 1835
22.5 1925
22.6 1864
22.7 1831
22.8 1778
22.9 1861
23 1839
23.1 1946
23.2 1920
23.3 1862
23.4 1750
23.5 1741
23.6 1832
23.7 1837
23.8 1775
23.9 1801
24 1730
24.1 1768
24.2 1692
24.3 1749
24.4 1731
24.5 1791
24.6 1830
24.7 1778
24.8 1792
24.9 1792
25 1773
25.1 1742
25.2 1775
25.3 1713
25.4 1703
25.5 1708
25.6 1786
25.7 1515
25.8 1632
25.9 1533
26 1546
26.1 1529
26.2 1583
26.3 1628
26.4 1577
26.5 1523
26.6 1499
26.7 1505
26.8 1688
26.9 1670
27 1606
27.1 1650
27.2 1664
27.3 1524
27.4 1488
27.5 1431
27.6 1486
27.7 1453
27.8 1458
27.9 1441
28 1378
28.1 1373
28.2 1454
28.3 1506
28.4 1536
28.5 1454
28.6 1355
28.7 1456
28.8 1505
28.9 1386
29 1391
29.1 1356
29.2 1373
29.3 1331
29.4 1297
29.5 1353
29.6 1320
29.7 1301
29.8 1403
29.9 1354
30 1284

File: 4-38.ASC
3 2520
3.1 1968
3.2 1803
3.3 1761
3.4 1645
3.5 1509
3.6 1543
3.7 1457
3.8 1428
3.9 1350
4 1250
4.1 1247
4.2 1238
4.3 1203
4.4 1121
4.5 1194
4.6 1144
4.7 1111
4.8 1057
4.9 1077
5 1047
5.1 1068
5.2 1097
5.3 1061
5.4 1020
5.5 1053
5.6 1043
5.7 1063
5.8 1013
5.9 940
6 985
6.1 1097
6.2 1000
6.3 1031
6.4 970
6.5 948
6.6 937
6.7 936
6.8 995
6.9 924
7 924
7.1 876
7.2 925
7.3 933
7.4 939
7.5 908
7.6 927
7.7 945
7.8 967
7.9 905
8 859
8.1 898
8.2 865
8.3 893
8.4 908
8.5 878
8.6 907
8.7 904
8.8 913
8.9 899
9 966
9.1 852
9.2 899
9.3 910
9.4 966
9.5 912
9.6 923
9.7 957
9.8 907
9.9 847
10 944
10.1 936
10.2 881
10.3 900
10.4 884
10.5 885
10.6 859
10.7 902
10.8 926
10.9 894
11 855
11.1 854
11.2 905
11.3 936
11.4 842
11.5 933
11.6 846
11.7 906
11.8 899
11.9 935
12 947
12.1 902
12.2 935
12.3 933
12.4 895
12.5 899
12.6 907
12.7 970
12.8 893
12.9 969
13 991
13.1 1005
13.2 1045
13.3 993
13.4 992
13.5 968
13.6 1012
13.7 997
13.8 1083
13.9 1060
14 1000
14.1 1070
14.2 1088
14.3 1048
14.4 1034
14.5 1104
14.6 1086
14.7 1115
14.8 1183
14.9 1176
15 1169
15.1 1161
15.2 1213
15.3 1213
15.4 1240
15.5 1210
15.6 1230
15.7 1301
15.8 1284
15.9 1333
16 1363
16.1 1290
16.2 1366
16.3 1396
16.4 1406
16.5 1454
16.6 1494
16.7 1605
16.8 1763
16.9 2509
17 3769
17.1 2245
17.2 1674
17.3 1566
17.4 1601
17.5 1601
17.6 1785
17.7 1773
17.8 1754
17.9 1685
18 1718
18.1 1758
18.2 1738
18.3 1849
18.4 1817
18.5 1875
18.6 1899
18.7 1908
18.8 2084
18.9 1971
19 1989
19.1 2005
19.2 2084
19.3 2099
19.4 2051
19.5 2092
19.6 2169
19.7 2062
19.8 2105
19.9 2154
20 2123
20.1 2250
20.2 2290
20.3 2244
20.4 2354
20.5 2309
20.6 2240
20.7 2316
20.8 2358
20.9 2291
21 2404
21.1 2318
21.2 2300
21.3 2296
21.4 2382
21.5 2292
21.6 2353
21.7 2336
21.8 2374
21.9 2362
22 2306
22.1 2352
22.2 2319
22.3 2311
22.4 2324
22.5 2325
22.6 2325
22.7 2327
22.8 2368
22.9 2282
23 2277
23.1 2251
23.2 2204
23.3 2289
23.4 2271
23.5 2358
23.6 2276
23.7 2236
23.8 2220
23.9 2250
24 2131
24.1 2188
24.2 2174
24.3 2260
24.4 2416
24.5 2507
24.6 2600
24.7 2227
24.8 2171
24.9 2066
25 2066
25.1 2192
25.2 2712
25.3 3224
25.4 2638
25.5 2135
25.6 1929
25.7 1927
25.8 1998
25.9 1847
26 1914
26.1 1810
26.2 1814
26.3 1855
26.4 1831
26.5 1844
26.6 1881
26.7 2101
26.8 2337
26.9 2627
27 2299
27.1 1882
27.2 1737
27.3 1711
27.4 1730
27.5 1749
27.6 1677
27.7 1684
27.8 1639
27.9 1569
28 1635
28.1 1636
28.2 1664
28.3 1539
28.4 1620
28.5 1534
28.6 1643
28.7 1578
28.8 1503
28.9 1542
29 1575
29.1 1635
29.2 1682
29.3 1655
29.4 1563
29.5 1467
29.6 1474
29.7 1487
29.8 1469
29.9 1457
30 1439

File: 5-11.ASC
3 2085
3.1 1601
3.2 1470
3.3 1404
3.4 1343
3.5 1254
3.6 1251
3.7 1196
3.8 1136
3.9 1090
4 1027
4.1 1112
4.2 963
4.3 914
4.4 912
4.5 910
4.6 901
4.7 883
4.8 884
4.9 912
5 934
5.1 971
5.2 1065
5.3 1114
5.4 1260
5.5 1582
5.6 2082
5.7 2963
5.8 5907
5.9 1100
6 930
6.1 994
6.2 1049
6.3 1137
6.4 1201
6.5 1605
6.6 2415
6.7 3239
6.8 921
6.9 919
7 885
7.1 933
7.2 974
7.3 1040
7.4 1098
7.5 1125
7.6 884
7.7 839
7.8 865
7.9 858
8 817
8.1 814
8.2 829
8.3 833
8.4 891
8.5 911
8.6 974
8.7 914
8.8 833
8.9 871
9 1005
9.1 992
9.2 1243
9.3 1642
9.4 3117
9.5 949
9.6 844
9.7 844
9.8 847
9.9 829
10 882
10.1 841
10.2 833
10.3 874
10.4 905
10.5 905
10.6 892
10.7 991
10.8 1190
10.9 1550
11 3037
11.1 1145
11.2 1030
11.3 1077
11.4 1254
11.5 2048
11.6 1024
11.7 930
11.8 919
11.9 930
12 966
12.1 967
12.2 1049
12.3 912
12.4 961
12.5 977
12.6 955
12.7 959
12.8 978
12.9 966
13 1034
13.1 1005
13.2 1174
13.3 1234
13.4 1029
13.5 1028
13.6 998
13.7 1118
13.8 973
13.9 1102
14 1065
14.1 1147
14.2 1133
14.3 1152
14.4 1330
14.5 1331
14.6 1148
14.7 1178
14.8 1207
14.9 1194
15 1126
15.1 1203
15.2 1173
15.3 1199
15.4 1257
15.5 1231
15.6 1281
15.7 1297
15.8 1346
15.9 1272
16 1313
16.1 1398
16.2 1338
16.3 1361
16.4 1329
16.5 1408
16.6 1507
16.7 1490
16.8 1499
16.9 1487
17 1626
17.1 1648
17.2 1784
17.3 1697
17.4 1607
17.5 1696
17.6 1657
17.7 1668
17.8 1790
17.9 1653
18 1765
18.1 1769
18.2 1779
18.3 1884
18.4 1880
18.5 1911
18.6 1828
18.7 1823
18.8 1890
18.9 2047
19 1956
19.1 2003
19.2 2103
19.3 2038
19.4 2179
19.5 2237
19.6 2779
19.7 2437
19.8 2504
19.9 3419
20 2288
20.1 2210
20.2 2181
20.3 2133
20.4 2219
20.5 2201
20.6 2120
20.7 2182
20.8 2179
20.9 2191
21 2142
21.1 2207
21.2 2226
21.3 2185
21.4 2213
21.5 2184
21.6 2138
21.7 2268
21.8 2461
21.9 2118
22 2166
22.1 2157
22.2 2116
22.3 2096
22.4 2083
22.5 2062
22.6 1986
22.7 1943
22.8 1987
22.9 1987
23 2057
23.1 1983
23.2 1848
23.3 1893
23.4 1928
23.5 1963
23.6 2027
23.7 2758
23.8 2207
23.9 1856
24 1931
24.1 1757
24.2 1709
24.3 1607
24.4 1712
24.5 1694
24.6 1674
24.7 1674
24.8 1847
24.9 2132
25 1668
25.1 1553
25.2 1561
25.3 1628
25.4 1681
25.5 2333
25.6 2113
25.7 1499
25.8 1656
25.9 1521
26 1516
26.1 1452
26.2 1393
26.3 1418
26.4 1403
26.5 1497
26.6 2036
26.7 1545
26.8 1367
26.9 1307
27 1367
27.1 1275
27.2 1377
27.3 1394
27.4 1807
27.5 1741
27.6 1374
27.7 1271
27.8 1249
27.9 1223
28 1205
28.1 1267
28.2 1342
28.3 1366
28.4 1264
28.5 1245
28.6 1230
28.7 1239
28.8 1598
28.9 1571
29 1576
29.1 1489
29.2 1197
29.3 1177
29.4 1159
29.5 1131
29.6 1162
29.7 1112
29.8 1112
29.9 1148
30 1140