Folder: CPC-code/xrd-UiO-67/pxrddata (part 11)

File: 35-32.ASC
3 2103
3.06 1759
3.12 1603
3.18 1519
3.24 1462
3.3 1463
3.36 1377
3.42 1357
3.48 1309
3.54 1307
3.6 1221
3.66 1279
3.72 1201
3.78 1143
3.84 1213
3.9 1157
3.96 1170
4.02 1145
4.08 1118
4.14 1145
4.2 1138
4.26 1130
4.32 1092
4.38 1169
4.44 1074
4.5 1043
4.56 1104
4.62 1098
4.68 1087
4.74 1006
4.8 1176
4.86 1096
4.92 1149
4.98 1167
5.04 1216
5.1 1301
5.16 1331
5.22 1451
5.28 1584
5.34 1733
5.4 2154
5.46 2578
5.52 2659
5.58 2107
5.64 1804
5.7 1795
5.76 1999
5.82 2075
5.88 1773
5.94 1374
6 1078
6.06 967
6.12 805
6.18 766
6.24 763
6.3 740
6.36 763
6.42 751
6.48 734
6.54 727
6.6 756
6.66 763
6.72 775
6.78 770
6.84 809
6.9 738
6.96 721
7.02 690
7.08 723
7.14 690
7.2 699
7.26 677
7.32 619
7.38 686
7.44 671
7.5 657
7.56 640
7.62 646
7.68 596
7.74 643
7.8 635
7.86 727
7.92 714
7.98 632
8.04 653
8.1 730
8.16 669
8.22 658
8.28 669
8.34 651
8.4 641
8.46 676
8.52 695
8.58 667
8.64 683
8.7 664
8.76 704
8.82 675
8.88 721
8.94 693
9 737
9.06 768
9.12 811
9.18 970
9.24 1087
9.3 1265
9.36 1652
9.42 1447
9.48 1027
9.54 777
9.6 752
9.66 672
9.72 695
9.78 663
9.84 731
9.9 732
9.96 739
10.02 771
10.08 729
10.14 754
10.2 852
10.26 770
10.32 804
10.38 751
10.44 772
10.5 709
10.56 736
10.62 767
10.68 928
10.74 1018
10.8 1200
10.86 1280
10.92 1104
10.98 1040
11.04 1022
11.1 855
11.16 804
11.22 727
11.28 720
11.34 729
11.4 739
11.46 771
11.52 777
11.58 816
11.64 745
11.7 771
11.76 672
11.82 736
11.88 714
11.94 707
12 723
12.06 699
12.12 716
12.18 788
12.24 769
12.3 769
12.36 768
12.42 757
12.48 732
12.54 723
12.6 713
12.66 696
12.72 747
12.78 761
12.84 729
12.9 787
12.96 731
13.02 753
13.08 789
13.14 765
13.2 803
13.26 797
13.32 795
13.38 811
13.44 739
13.5 814
13.56 802
13.62 808
13.68 767
13.74 847
13.8 855
13.86 809
13.92 787
13.98 850
14.04 778
14.1 835
14.16 839
14.22 797
14.28 891
14.34 913
14.4 922
14.46 873
14.52 911
14.58 868
14.64 848
14.7 833
14.76 935
14.82 888
14.88 900
14.94 869
15 905
15.06 875
15.12 891
15.18 960
15.24 866
15.3 869
15.36 961
15.42 923
15.48 982
15.54 967
15.6 952
15.66 942
15.72 962
15.78 958
15.84 940
15.9 968
15.96 1024
16.02 965
16.08 969
16.14 1025
16.2 1124
16.26 1063
16.32 1117
16.38 1084
16.44 1144
16.5 1131
16.56 1124
16.62 1084
16.68 1104
16.74 1127
16.8 1219
16.86 1138
16.92 1227
16.98 1400
17.04 1310
17.1 1199
17.16 1173
17.22 1223
17.28 1274
17.34 1202
17.4 1228
17.46 1210
17.52 1299
17.58 1299
17.64 1299
17.7 1316
17.76 1295
17.82 1307
17.88 1296
17.94 1396
18 1291
18.06 1361
18.12 1346
18.18 1307
18.24 1318
18.3 1349
18.36 1334
18.42 1311
18.48 1418
18.54 1404
18.6 1397
18.66 1484
18.72 1548
18.78 1567
18.84 1467
18.9 1567
18.96 1490
19.02 1618
19.08 1608
19.14 1659
19.2 1643
19.26 1602
19.32 1651
19.38 1712
19.44 1819
19.5 1940
19.56 1954
19.62 1827
19.68 1728
19.74 1591
19.8 1610
19.86 1625
19.92 1680
19.98 1628
20 1743

File: 35-34.ASC
3 2625
3.06 2323
3.12 2151
3.18 2014
3.24 1827
3.3 1835
3.36 1752
3.42 1765
3.48 1740
3.54 1618
3.6 1715
3.66 1554
3.72 1566
3.78 1538
3.84 1550
3.9 1529
3.96 1457
4.02 1493
4.08 1517
4.14 1481
4.2 1421
4.26 1437
4.32 1432
4.38 1383
4.44 1439
4.5 1381
4.56 1360
4.62 1390
4.68 1325
4.74 1342
4.8 1385
4.86 1344
4.92 1370
4.98 1443
5.04 1389
5.1 1367
5.16 1454
5.22 1497
5.28 1669
5.34 1772
5.4 1986
5.46 2500
5.52 1947
5.58 1572
5.64 1457
5.7 1364
5.76 1211
5.82 1209
5.88 1125
5.94 1046
6 1037
6.06 995
6.12 944
6.18 996
6.24 942
6.3 926
6.36 908
6.42 956
6.48 861
6.54 880
6.6 893
6.66 911
6.72 818
6.78 822
6.84 826
6.9 831
6.96 789
7.02 778
7.08 842
7.14 834
7.2 793
7.26 755
7.32 788
7.38 841
7.44 770
7.5 786
7.56 782
7.62 830
7.68 771
7.74 822
7.8 763
7.86 766
7.92 769
7.98 729
8.04 684
8.1 779
8.16 736
8.22 761
8.28 762
8.34 719
8.4 778
8.46 769
8.52 708
8.58 713
8.64 730
8.7 732
8.76 698
8.82 720
8.88 736
8.94 764
9 758
9.06 777
9.12 801
9.18 858
9.24 839
9.3 965
9.36 1123
9.42 1092
9.48 832
9.54 723
9.6 747
9.66 725
9.72 722
9.78 701
9.84 714
9.9 704
9.96 667
10.02 715
10.08 718
10.14 698
10.2 713
10.26 698
10.32 737
10.38 680
10.44 670
10.5 733
10.56 691
10.62 746
10.68 772
10.74 786
10.8 896
10.86 925
10.92 804
10.98 765
11.04 678
11.1 673
11.16 697
11.22 689
11.28 692
11.34 706
11.4 709
11.46 647
11.52 647
11.58 671
11.64 709
11.7 686
11.76 714
11.82 703
11.88 715
11.94 717
12 648
12.06 717
12.12 723
12.18 705
12.24 701
12.3 749
12.36 742
12.42 701
12.48 762
12.54 696
12.6 672
12.66 718
12.72 670
12.78 703
12.84 702
12.9 737
12.96 739
13.02 743
13.08 689
13.14 735
13.2 725
13.26 749
13.32 777
13.38 759
13.44 787
13.5 712
13.56 749
13.62 778
13.68 796
13.74 783
13.8 689
13.86 744
13.92 775
13.98 820
14.04 753
14.1 746
14.16 766
14.22 795
14.28 857
14.34 805
14.4 799
14.46 812
14.52 809
14.58 825
14.64 807
14.7 849
14.76 858
14.82 830
14.88 854
14.94 853
15 816
15.06 842
15.12 792
15.18 881
15.24 844
15.3 833
15.36 923
15.42 870
15.48 897
15.54 875
15.6 895
15.66 898
15.72 898
15.78 923
15.84 929
15.9 922
15.96 939
16.02 981
16.08 917
16.14 962
16.2 936
16.26 995
16.32 983
16.38 954
16.44 1020
16.5 1030
16.56 1022
16.62 1046
16.68 1082
16.74 1075
16.8 1082
16.86 1166
16.92 1257
16.98 1478
17.04 2048
17.1 1712
17.16 1154
17.22 1142
17.28 1198
17.34 1109
17.4 1165
17.46 1216
17.52 1174
17.58 1175
17.64 1242
17.7 1146
17.76 1244
17.82 1124
17.88 1156
17.94 1202
18 1217
18.06 1199
18.12 1202
18.18 1259
18.24 1260
18.3 1287
18.36 1308
18.42 1361
18.48 1284
18.54 1324
18.6 1400
18.66 1344
18.72 1340
18.78 1420
18.84 1318
18.9 1427
18.96 1421
19.02 1438
19.08 1450
19.14 1447
19.2 1464
19.26 1479
19.32 1483
19.38 1563
19.44 1524
19.5 1627
19.56 1476
19.62 1594
19.68 1556
19.74 1591
19.8 1578
19.86 1546
19.92 1514
19.98 1599
20 1542

File: 35-35.ASC
3 2394
3.06 1989
3.12 1840
3.18 1834
3.24 1794
3.3 1728
3.36 1633
3.42 1634
3.48 1625
3.54 1605
3.6 1640
3.66 1572
3.72 1540
3.78 1563
3.84 1578
3.9 1581
3.96 1610
4.02 1638
4.08 1650
4.14 1655
4.2 1737
4.26 1731
4.32 1773
4.38 1834
4.44 1884
4.5 1828
4.56 1945
4.62 1916
4.68 1932
4.74 1966
4.8 1885
4.86 1966
4.92 2018
4.98 2009
5.04 2009
5.1 2041
5.16 1991
5.22 2083
5.28 2124
5.34 2201
5.4 2484
5.46 2554
5.52 2000
5.58 1888
5.64 1825
5.7 1804
5.76 1701
5.82 1565
5.88 1435
5.94 1378
6 1297
6.06 1280
6.12 1185
6.18 1177
6.24 1110
6.3 1117
6.36 1108
6.42 1110
6.48 1044
6.54 1069
6.6 1048
6.66 1009
6.72 989
6.78 986
6.84 941
6.9 911
6.96 942
7.02 960
7.08 897
7.14 933
7.2 921
7.26 910
7.32 852
7.38 872
7.44 865
7.5 874
7.56 888
7.62 859
7.68 897
7.74 903
7.8 849
7.86 855
7.92 846
7.98 883
8.04 872
8.1 894
8.16 846
8.22 880
8.28 801
8.34 910
8.4 859
8.46 911
8.52 849
8.58 875
8.64 941
8.7 894
8.76 857
8.82 897
8.88 916
8.94 915
9 865
9.06 924
9.12 974
9.18 998
9.24 1053
9.3 1175
9.36 1309
9.42 976
9.48 918
9.54 895
9.6 900
9.66 883
9.72 862
9.78 901
9.84 894
9.9 908
9.96 843
10.02 874
10.08 873
10.14 870
10.2 922
10.26 850
10.32 869
10.38 910
10.44 855
10.5 883
10.56 856
10.62 912
10.68 946
10.74 1034
10.8 1043
10.86 999
10.92 951
10.98 970
11.04 862
11.1 857
11.16 871
11.22 875
11.28 872
11.34 922
11.4 879
11.46 839
11.52 898
11.58 974
11.64 887
11.7 863
11.76 869
11.82 891
11.88 852
11.94 903
12 906
12.06 920
12.12 870
12.18 914
12.24 895
12.3 907
12.36 904
12.42 921
12.48 879
12.54 857
12.6 903
12.66 896
12.72 975
12.78 943
12.84 939
12.9 907
12.96 948
13.02 887
13.08 927
13.14 1002
13.2 932
13.26 955
13.32 970
13.38 978
13.44 941
13.5 933
13.56 944
13.62 948
13.68 918
13.74 921
13.8 902
13.86 957
13.92 914
13.98 972
14.04 971
14.1 917
14.16 917
14.22 1008
14.28 953
14.34 1047
14.4 1008
14.46 977
14.52 995
14.58 991
14.64 907
14.7 986
14.76 1003
14.82 982
14.88 998
14.94 1006
15 1006
15.06 995
15.12 976
15.18 1002
15.24 1041
15.3 1027
15.36 1063
15.42 1048
15.48 1089
15.54 1032
15.6 1045
15.66 1091
15.72 1081
15.78 1117
15.84 1147
15.9 1071
15.96 1106
16.02 1065
16.08 1106
16.14 1142
16.2 1151
16.26 1140
16.32 1169
16.38 1160
16.44 1237
16.5 1199
16.56 1227
16.62 1199
16.68 1287
16.74 1211
16.8 1349
16.86 1547
16.92 1764
16.98 3800
17.04 3368
17.1 1384
17.16 1337
17.22 1301
17.28 1289
17.34 1315
17.4 1325
17.46 1419
17.52 1382
17.58 1282
17.64 1363
17.7 1381
17.76 1421
17.82 1374
17.88 1434
17.94 1332
18 1437
18.06 1362
18.12 1337
18.18 1391
18.24 1501
18.3 1462
18.36 1475
18.42 1504
18.48 1479
18.54 1579
18.6 1523
18.66 1540
18.72 1574
18.78 1503
18.84 1566
18.9 1502
18.96 1585
19.02 1592
19.08 1521
19.14 1565
19.2 1616
19.26 1627
19.32 1676
19.38 1771
19.44 1717
19.5 1709
19.56 1744
19.62 1647
19.68 1712
19.74 1679
19.8 1678
19.86 1745
19.92 1691
19.98 1742
20 1779

File: 35-36.ASC
3 2861
3.06 2379
3.12 2116
3.18 2041
3.24 1965
3.3 1868
3.36 1807
3.42 1778
3.48 1718
3.54 1608
3.6 1583
3.66 1567
3.72 1513
3.78 1409
3.84 1445
3.9 1388
3.96 1383
4.02 1225
4.08 1310
4.14 1224
4.2 1239
4.26 1237
4.32 1233
4.38 1184
4.44 1192
4.5 1132
4.56 1168
4.62 1096
4.68 1089
4.74 1129
4.8 1073
4.86 1123
4.92 1081
4.98 1036
5.04 1150
5.1 1077
5.16 1134
5.22 1274
5.28 1301
5.34 1438
5.4 1579
5.46 1939
5.52 1495
5.58 1166
5.64 1079
5.7 1027
5.76 978
5.82 918
5.88 897
5.94 903
6 860
6.06 836
6.12 806
6.18 846
6.24 807
6.3 810
6.36 809
6.42 804
6.48 758
6.54 764
6.6 790
6.66 754
6.72 778
6.78 753
6.84 778
6.9 774
6.96 759
7.02 712
7.08 734
7.14 740
7.2 764
7.26 702
7.32 671
7.38 731
7.44 736
7.5 726
7.56 694
7.62 716
7.68 644
7.74 717
7.8 713
7.86 699
7.92 714
7.98 706
8.04 686
8.1 682
8.16 660
8.22 652
8.28 654
8.34 656
8.4 671
8.46 658
8.52 672
8.58 625
8.64 664
8.7 645
8.76 656
8.82 640
8.88 653
8.94 626
9 680
9.06 710
9.12 684
9.18 743
9.24 741
9.3 807
9.36 1000
9.42 914
9.48 712
9.54 665
9.6 700
9.66 632
9.72 686
9.78 625
9.84 634
9.9 648
9.96 587
10.02 656
10.08 631
10.14 618
10.2 621
10.26 655
10.32 600
10.38 645
10.44 628
10.5 607
10.56 638
10.62 665
10.68 682
10.74 710
10.8 771
10.86 732
10.92 656
10.98 642
11.04 633
11.1 657
11.16 607
11.22 642
11.28 569
11.34 641
11.4 579
11.46 569
11.52 581
11.58 568
11.64 595
11.7 645
11.76 630
11.82 634
11.88 611
11.94 631
12 625
12.06 596
12.12 618
12.18 663
12.24 637
12.3 637
12.36 621
12.42 632
12.48 593
12.54 628
12.6 652
12.66 633
12.72 660
12.78 627
12.84 641
12.9 642
12.96 673
13.02 657
13.08 657
13.14 686
13.2 700
13.26 654
13.32 641
13.38 636
13.44 678
13.5 640
13.56 678
13.62 660
13.68 697
13.74 661
13.8 720
13.86 661
13.92 684
13.98 686
14.04 668
14.1 672
14.16 718
14.22 694
14.28 714
14.34 769
14.4 777
14.46 680
14.52 766
14.58 665
14.64 708
14.7 730
14.76 707
14.82 739
14.88 729
14.94 761
15 779
15.06 717
15.12 772
15.18 735
15.24 725
15.3 757
15.36 806
15.42 836
15.48 780
15.54 773
15.6 831
15.66 798
15.72 802
15.78 794
15.84 813
15.9 847
15.96 831
16.02 808
16.08 857
16.14 834
16.2 833
16.26 876
16.32 867
16.38 883
16.44 872
16.5 892
16.56 880
16.62 857
16.68 904
16.74 915
16.8 948
16.86 933
16.92 1141
16.98 1267
17.04 1533
17.1 1248
17.16 1048
17.22 997
17.28 938
17.34 971
17.4 981
17.46 996
17.52 984
17.58 1001
17.64 1003
17.7 1003
17.76 1068
17.82 1075
17.88 1061
17.94 1099
18 1045
18.06 1118
18.12 1064
18.18 1036
18.24 1091
18.3 1134
18.36 1096
18.42 1133
18.48 1126
18.54 1145
18.6 1104
18.66 1221
18.72 1175
18.78 1169
18.84 1201
18.9 1153
18.96 1254
19.02 1213
19.08 1251
19.14 1214
19.2 1213
19.26 1280
19.32 1214
19.38 1303
19.44 1296
19.5 1284
19.56 1278
19.62 1284
19.68 1318
19.74 1319
19.8 1317
19.86 1257
19.92 1286
19.98 1377
20 1313

File: 36-1.ASC
3 2828
3.06 2389
3.12 2169
3.18 2094
3.24 2040
3.3 1917
3.36 1793
3.42 1862
3.48 1731
3.54 1659
3.6 1563
3.66 1570
3.72 1500
3.78 1443
3.84 1436
3.9 1347
3.96 1376
4.02 1267
4.08 1299
4.14 1201
4.2 1141
4.26 1145
4.32 1149
4.38 1127
4.44 1060
4.5 1026
4.56 972
4.62 973
4.68 963
4.74 966
4.8 960
4.86 949
4.92 869
4.98 892
5.04 845
5.1 851
5.16 811
5.22 823
5.28 750
5.34 821
5.4 789
5.46 805
5.52 808
5.58 790
5.64 811
5.7 761
5.76 757
5.82 709
5.88 771
5.94 778
6 721
6.06 748
6.12 698
6.18 692
6.24 742
6.3 706
6.36 703
6.42 673
6.48 665
6.54 670
6.6 648
6.66 665
6.72 621
6.78 636
6.84 666
6.9 665
6.96 632
7.02 698
7.08 664
7.14 627
7.2 654
7.26 669
7.32 633
7.38 601
7.44 642
7.5 651
7.56 666
7.62 616
7.68 667
7.74 627
7.8 586
7.86 638
7.92 613
7.98 597
8.04 613
8.1 616
8.16 592
8.22 624
8.28 584
8.34 637
8.4 624
8.46 614
8.52 601
8.58 572
8.64 632
8.7 600
8.76 581
8.82 536
8.88 602
8.94 565
9 599
9.06 606
9.12 590
9.18 551
9.24 585
9.3 566
9.36 577
9.42 569
9.48 563
9.54 605
9.6 511
9.66 585
9.72 575
9.78 532
9.84 571
9.9 512
9.96 549
10.02 591
10.08 600
10.14 548
10.2 575
10.26 571
10.32 590
10.38 529
10.44 547
10.5 562
10.56 564
10.62 511
10.68 557
10.74 539
10.8 530
10.86 524
10.92 552
10.98 547
11.04 535
11.1 581
11.16 548
11.22 538
11.28 573
11.34 539
11.4 558
11.46 572
11.52 535
11.58 574
11.64 587
11.7 555
11.76 613
11.82 579
11.88 609
11.94 532
12 597
12.06 607
12.12 590
12.18 616
12.24 587
12.3 514
12.36 582
12.42 555
12.48 519
12.54 582
12.6 551
12.66 581
12.72 586
12.78 579
12.84 616
12.9 574
12.96 609
13.02 619
13.08 593
13.14 590
13.2 635
13.26 606
13.32 612
13.38 626
13.44 628
13.5 658
13.56 598
13.62 605
13.68 609
13.74 638
13.8 602
13.86 642
13.92 651
13.98 628
14.04 654
14.1 642
14.16 660
14.22 639
14.28 686
14.34 690
14.4 621
14.46 664
14.52 652
14.58 691
14.64 677
14.7 704
14.76 712
14.82 675
14.88 699
14.94 740
15 716
15.06 691
15.12 718
15.18 740
15.24 752
15.3 740
15.36 729
15.42 740
15.48 771
15.54 789
15.6 716
15.66 752
15.72 742
15.78 759
15.84 758
15.9 810
15.96 821
16.02 801
16.08 774
16.14 804
16.2 858
16.26 831
16.32 807
16.38 837
16.44 881
16.5 850
16.56 902
16.62 888
16.68 924
16.74 849
16.8 910
16.86 1030
16.92 1169
16.98 1411
17.04 1477
17.1 1121
17.16 1054
17.22 923
17.28 946
17.34 929
17.4 967
17.46 1021
17.52 990
17.58 1025
17.64 958
17.7 1036
17.76 1001
17.82 996
17.88 1064
17.94 1025
18 1048
18.06 1076
18.12 1049
18.18 1091
18.24 1105
18.3 1092
18.36 1054
18.42 1132
18.48 1086
18.54 1196
18.6 1147
18.66 1175
18.72 1142
18.78 1186
18.84 1221
18.9 1277
18.96 1190
19.02 1226
19.08 1249
19.14 1301
19.2 1224
19.26 1319
19.32 1270
19.38 1281
19.44 1311
19.5 1261
19.56 1326
19.62 1344
19.68 1348
19.74 1408
19.8 1341
19.86 1352
19.92 1422
19.98 1364
20 1394

File: 36-4.ASC
3 2274
3.06 2022
3.12 1758
3.18 1675
3.24 1715
3.3 1630
3.36 1556
3.42 1461
3.48 1426
3.54 1420
3.6 1453
3.66 1344
3.72 1303
3.78 1244
3.84 1272
3.9 1148
3.96 1134
4.02 1061
4.08 1139
4.14 1052
4.2 1077
4.26 1041
4.32 1063
4.38 1002
4.44 969
4.5 973
4.56 987
4.62 927
4.68 885
4.74 885
4.8 917
4.86 867
4.92 774
4.98 816
5.04 820
5.1 825
5.16 794
5.22 761
5.28 765
5.34 725
5.4 733
5.46 757
5.52 773
5.58 745
5.64 716
5.7 733
5.76 735
5.82 702
5.88 676
5.94 702
6 675
6.06 675
6.12 663
6.18 690
6.24 659
6.3 699
6.36 628
6.42 661
6.48 670
6.54 652
6.6 607
6.66 612
6.72 678
6.78 633
6.84 647
6.9 613
6.96 636
7.02 642
7.08 605
7.14 650
7.2 606
7.26 618
7.32 612
7.38 632
7.44 612
7.5 648
7.56 580
7.62 607
7.68 601
7.74 607
7.8 621
7.86 604
7.92 554
7.98 604
8.04 590
8.1 615
8.16 594
8.22 585
8.28 585
8.34 605
8.4 574
8.46 580
8.52 584
8.58 592
8.64 565
8.7 581
8.76 616
8.82 588
8.88 560
8.94 570
9 598
9.06 558
9.12 592
9.18 569
9.24 572
9.3 599
9.36 586
9.42 590
9.48 591
9.54 571
9.6 589
9.66 578
9.72 574
9.78 543
9.84 603
9.9 554
9.96 556
10.02 526
10.08 587
10.14 567
10.2 528
10.26 576
10.32 563
10.38 543
10.44 537
10.5 551
10.56 543
10.62 560
10.68 520
10.74 584
10.8 538
10.86 532
10.92 570
10.98 571
11.04 573
11.1 584
11.16 555
11.22 589
11.28 543
11.34 592
11.4 558
11.46 591
11.52 558
11.58 563
11.64 551
11.7 538
11.76 614
11.82 565
11.88 579
11.94 565
12 528
12.06 574
12.12 587
12.18 567
12.24 567
12.3 604
12.36 569
12.42 558
12.48 578
12.54 580
12.6 588
12.66 573
12.72 599
12.78 599
12.84 568
12.9 593
12.96 622
13.02 539
13.08 593
13.14 577
13.2 548
13.26 619
13.32 619
13.38 586
13.44 641
13.5 586
13.56 627
13.62 582
13.68 605
13.74 620
13.8 607
13.86 649
13.92 665
13.98 651
14.04 637
14.1 622
14.16 712
14.22 680
14.28 642
14.34 671
14.4 655
14.46 694
14.52 713
14.58 648
14.64 690
14.7 695
14.76 675
14.82 684
14.88 679
14.94 734
15 673
15.06 711
15.12 706
15.18 701
15.24 728
15.3 735
15.36 705
15.42 729
15.48 757
15.54 720
15.6 781
15.66 697
15.72 784
15.78 763
15.84 734
15.9 755
15.96 776
16.02 822
16.08 779
16.14 812
16.2 823
16.26 813
16.32 817
16.38 797
16.44 812
16.5 815
16.56 831
16.62 888
16.68 918
16.74 909
16.8 916
16.86 950
16.92 1116
16.98 1306
17.04 1474
17.1 1073
17.16 941
17.22 940
17.28 938
17.34 904
17.4 927
17.46 933
17.52 977
17.58 938
17.64 998
17.7 1020
17.76 976
17.82 991
17.88 984
17.94 1032
18 1054
18.06 1069
18.12 1004
18.18 993
18.24 1107
18.3 1127
18.36 1121
18.42 1116
18.48 1116
18.54 1139
18.6 1024
18.66 1130
18.72 1115
18.78 1142
18.84 1128
18.9 1203
18.96 1237
19.02 1151
19.08 1150
19.14 1157
19.2 1174
19.26 1213
19.32 1224
19.38 1263
19.44 1259
19.5 1290
19.56 1219
19.62 1188
19.68 1330
19.74 1243
19.8 1385
19.86 1301
19.92 1343
19.98 1335
20 1368

File: 36-7.ASC
3 2946
3.06 2455
3.12 2311
3.18 2302
3.24 2195
3.3 2049
3.36 2077
3.42 1848
3.48 1869
3.54 1726
3.6 1709
3.66 1646
3.72 1651
3.78 1588
3.84 1598
3.9 1577
3.96 1498
4.02 1441
4.08 1450
4.14 1364
4.2 1273
4.26 1265
4.32 1225
4.38 1103
4.44 1092
4.5 1064
4.56 1020
4.62 1056
4.68 982
4.74 966
4.8 983
4.86 942
4.92 946
4.98 958
5.04 1027
5.1 1063
5.16 1071
5.22 1151
5.28 1264
5.34 1495
5.4 1841
5.46 1594
5.52 1472
5.58 1543
5.64 1722
5.7 2034
5.76 2291
5.82 1542
5.88 977
5.94 877
6 821
6.06 732
6.12 746
6.18 727
6.24 733
6.3 730
6.36 645
6.42 687
6.48 661
6.54 643
6.6 717
6.66 698
6.72 746
6.78 746
6.84 646
6.9 604
6.96 618
7.02 575
7.08 577
7.14 567
7.2 613
7.26 598
7.32 591
7.38 599
7.44 545
7.5 591
7.56 559
7.62 545
7.68 540
7.74 553
7.8 602
7.86 557
7.92 597
7.98 589
8.04 535
8.1 529
8.16 574
8.22 558
8.28 549
8.34 508
8.4 543
8.46 512
8.52 506
8.58 525
8.64 538
8.7 527
8.76 498
8.82 505
8.88 573
8.94 613
9 602
9.06 616
9.12 640
9.18 745
9.24 880
9.3 1226
9.36 881
9.42 692
9.48 569
9.54 548
9.6 502
9.66 526
9.72 533
9.78 513
9.84 532
9.9 550
9.96 552
10.02 577
10.08 618
10.14 663
10.2 581
10.26 494
10.32 517
10.38 501
10.44 495
10.5 520
10.56 539
10.62 584
10.68 632
10.74 724
10.8 755
10.86 735
10.92 865
10.98 706
11.04 574
11.1 517
11.16 525
11.22 533
11.28 500
11.34 567
11.4 566
11.46 639
11.52 565
11.58 544
11.64 458
11.7 472
11.76 531
11.82 512
11.88 486
11.94 505
12 504
12.06 538
12.12 519
12.18 565
12.24 517
12.3 521
12.36 552
12.42 473
12.48 483
12.54 510
12.6 493
12.66 495
12.72 506
12.78 502
12.84 485
12.9 495
12.96 453
13.02 521
13.08 501
13.14 517
13.2 542
13.26 565
13.32 596
13.38 578
13.44 559
13.5 512
13.56 472
13.62 538
13.68 557
13.74 551
13.8 478
13.86 530
13.92 520
13.98 512
14.04 515
14.1 529
14.16 566
14.22 603
14.28 529
14.34 565
14.4 558
14.46 564
14.52 557
14.58 597
14.64 591
14.7 580
14.76 626
14.82 618
14.88 560
14.94 608
15 568
15.06 600
15.12 586
15.18 600
15.24 618
15.3 584
15.36 604
15.42 588
15.48 608
15.54 585
15.6 568
15.66 614
15.72 613
15.78 611
15.84 560
15.9 671
15.96 615
16.02 645
16.08 629
16.14 669
16.2 725
16.26 704
16.32 710
16.38 692
16.44 678
16.5 673
16.56 664
16.62 711
16.68 637
16.74 692
16.8 718
16.86 797
16.92 1043
16.98 1392
17.04 1069
17.1 819
17.16 740
17.22 837
17.28 765
17.34 763
17.4 742
17.46 813
17.52 765
17.58 762
17.64 767
17.7 798
17.76 789
17.82 831
17.88 840
17.94 818
18 821
18.06 798
18.12 777
18.18 806
18.24 852
18.3 897
18.36 868
18.42 849
18.48 837
18.54 974
18.6 956
18.66 947
18.72 916
18.78 960
18.84 920
18.9 978
18.96 1049
19.02 1032
19.08 1094
19.14 1063
19.2 1048
19.26 923
19.32 1026
19.38 1095
19.44 1208
19.5 1160
19.56 1170
19.62 1054
19.68 999
19.74 995
19.8 1050
19.86 1088
19.92 1040
19.98 1019
20 1064

File: 36-8.ASC
3 2361
3.06 2007
3.12 1795
3.18 1792
3.24 1686
3.3 1646
3.36 1677
3.42 1634
3.48 1582
3.54 1569
3.6 1522
3.66 1488
3.72 1554
3.78 1550
3.84 1483
3.9 1497
3.96 1466
4.02 1423
4.08 1495
4.14 1380
4.2 1352
4.26 1329
4.32 1390
4.38 1357
4.44 1392
4.5 1308
4.56 1286
4.62 1273
4.68 1280
4.74 1225
4.8 1303
4.86 1226
4.92 1210
4.98 1271
5.04 1254
5.1 1210
5.16 1154
5.22 1262
5.28 1235
5.34 1298
5.4 1332
5.46 1288
5.52 1189
5.58 1142
5.64 1014
5.7 975
5.76 963
5.82 910
5.88 894
5.94 894
6 855
6.06 789
6.12 851
6.18 819
6.24 806
6.3 725
6.36 720
6.42 816
6.48 809
6.54 754
6.6 741
6.66 725
6.72 715
6.78 724
6.84 689
6.9 665
6.96 689
7.02 676
7.08 698
7.14 669
7.2 662
7.26 640
7.32 637
7.38 675
7.44 650
7.5 650
7.56 653
7.62 621
7.68 633
7.74 603
7.8 651
7.86 624
7.92 645
7.98 612
8.04 602
8.1 607
8.16 611
8.22 619
8.28 634
8.34 590
8.4 571
8.46 599
8.52 567
8.58 566
8.64 610
8.7 566
8.76 651
8.82 567
8.88 613
8.94 577
9 583
9.06 579
9.12 586
9.18 625
9.24 561
9.3 626
9.36 626
9.42 613
9.48 580
9.54 570
9.6 606
9.66 536
9.72 576
9.78 577
9.84 559
9.9 548
9.96 529
10.02 542
10.08 525
10.14 520
10.2 487
10.26 546
10.32 534
10.38 538
10.44 511
10.5 508
10.56 533
10.62 516
10.68 525
10.74 504
10.8 530
10.86 561
10.92 569
10.98 527
11.04 526
11.1 506
11.16 503
11.22 511
11.28 471
11.34 552
11.4 500
11.46 463
11.52 498
11.58 492
11.64 536
11.7 519
11.76 496
11.82 502
11.88 481
11.94 483
12 506
12.06 471
12.12 519
12.18 485
12.24 493
12.3 486
12.36 504
12.42 479
12.48 532
12.54 499
12.6 504
12.66 493
12.72 525
12.78 500
12.84 499
12.9 496
12.96 527
13.02 520
13.08 491
13.14 526
13.2 528
13.26 494
13.32 501
13.38 513
13.44 490
13.5 494
13.56 508
13.62 509
13.68 506
13.74 487
13.8 561
13.86 538
13.92 502
13.98 544
14.04 547
14.1 579
14.16 523
14.22 552
14.28 530
14.34 529
14.4 588
14.46 535
14.52 568
14.58 552
14.64 589
14.7 573
14.76 562
14.82 537
14.88 548
14.94 590
15 571
15.06 572
15.12 533
15.18 568
15.24 566
15.3 617
15.36 569
15.42 598
15.48 552
15.54 617
15.6 572
15.66 610
15.72 553
15.78 576
15.84 634
15.9 623
15.96 632
16.02 604
16.08 623
16.14 664
16.2 669
16.26 657
16.32 634
16.38 686
16.44 640
16.5 674
16.56 645
16.62 647
16.68 678
16.74 706
16.8 759
16.86 857
16.92 988
16.98 1611
17.04 2492
17.1 1199
17.16 765
17.22 729
17.28 753
17.34 740
17.4 727
17.46 740
17.52 742
17.58 764
17.64 736
17.7 701
17.76 766
17.82 762
17.88 796
17.94 840
18 747
18.06 775
18.12 808
18.18 771
18.24 799
18.3 774
18.36 813
18.42 797
18.48 798
18.54 833
18.6 868
18.66 907
18.72 829
18.78 874
18.84 837
18.9 861
18.96 847
19.02 853
19.08 901
19.14 858
19.2 889
19.26 872
19.32 865
19.38 855
19.44 879
19.5 891
19.56 908
19.62 937
19.68 915
19.74 958
19.8 959
19.86 894
19.92 987
19.98 945
20 1005

File: 36-9.ASC
3 2913
3.06 2509
3.12 2318
3.18 2204
3.24 2185
3.3 2160
3.36 1969
3.42 1966
3.48 1939
3.54 1791
3.6 1731
3.66 1758
3.72 1699
3.78 1570
3.84 1581
3.9 1453
3.96 1440
4.02 1405
4.08 1355
4.14 1271
4.2 1292
4.26 1177
4.32 1096
4.38 1148
4.44 1083
4.5 1037
4.56 1011
4.62 980
4.68 910
4.74 897
4.8 918
4.86 837
4.92 838
4.98 796
5.04 774
5.1 744
5.16 756
5.22 699
5.28 710
5.34 731
5.4 695
5.46 704
5.52 650
5.58 679
5.64 630
5.7 656
5.76 656
5.82 618
5.88 622
5.94 616
6 584
6.06 572
6.12 598
6.18 610
6.24 603
6.3 647
6.36 606
6.42 601
6.48 680
6.54 564
6.6 603
6.66 606
6.72 569
6.78 597
6.84 589
6.9 573
6.96 571
7.02 552
7.08 601
7.14 560
7.2 584
7.26 551
7.32 581
7.38 491
7.44 551
7.5 542
7.56 557
7.62 565
7.68 571
7.74 555
7.8 534
7.86 559
7.92 488
7.98 509
8.04 471
8.1 542
8.16 533
8.22 518
8.28 521
8.34 527
8.4 507
8.46 506
8.52 537
8.58 524
8.64 606
8.7 585
8.76 717
8.82 741
8.88 870
8.94 1318
9 1412
9.06 1047
9.12 804
9.18 554
9.24 499
9.3 495
9.36 492
9.42 492
9.48 474
9.54 494
9.6 503
9.66 491
9.72 518
9.78 572
9.84 570
9.9 683
9.96 606
10.02 559
10.08 501
10.14 488
10.2 460
10.26 475
10.32 476
10.38 440
10.44 463
10.5 436
10.56 463
10.62 429
10.68 456
10.74 452
10.8 476
10.86 474
10.92 463
10.98 414
11.04 444
11.1 441
11.16 422
11.22 470
11.28 448
11.34 454
11.4 480
11.46 458
11.52 473
11.58 472
11.64 429
11.7 429
11.76 428
11.82 444
11.88 429
11.94 451
12 453
12.06 434
12.12 459
12.18 425
12.24 445
12.3 470
12.36 435
12.42 450
12.48 467
12.54 472
12.6 550
12.66 538
12.72 532
12.78 510
12.84 472
12.9 471
12.96 430
13.02 446
13.08 469
13.14 469
13.2 452
13.26 509
13.32 524
13.38 540
13.44 537
13.5 528
13.56 459
13.62 478
13.68 510
13.74 464
13.8 451
13.86 440
13.92 471
13.98 488
14.04 476
14.1 472
14.16 479
14.22 504
14.28 458
14.34 472
14.4 458
14.46 458
14.52 467
14.58 471
14.64 454
14.7 458
14.76 506
14.82 472
14.88 514
14.94 521
15 534
15.06 512
15.12 472
15.18 491
15.24 542
15.3 523
15.36 547
15.42 514
15.48 533
15.54 518
15.6 521
15.66 511
15.72 498
15.78 541
15.84 512
15.9 516
15.96 575
16.02 552
16.08 543
16.14 543
16.2 542
16.26 523
16.32 595
16.38 574
16.44 591
16.5 587
16.56 631
16.62 593
16.68 633
16.74 741
16.8 881
16.86 1040
16.92 1487
16.98 1689
17.04 1074
17.1 814
17.16 691
17.22 655
17.28 651
17.34 645
17.4 622
17.46 647
17.52 670
17.58 650
17.64 649
17.7 686
17.76 673
17.82 702
17.88 694
17.94 719
18 749
18.06 760
18.12 731
18.18 693
18.24 741
18.3 729
18.36 723
18.42 706
18.48 772
18.54 746
18.6 796
18.66 786
18.72 759
18.78 733
18.84 742
18.9 807
18.96 762
19.02 749
19.08 794
19.14 758
19.2 777
19.26 779
19.32 720
19.38 738
19.44 791
19.5 806
19.56 807
19.62 799
19.68 827
19.74 838
19.8 875
19.86 890
19.92 904
19.98 865
20 885