Folder: CPC-code/xrd-UiO-67/pxrddata

File: 2-1.ASC
2.8 5434
2.9 3591
3 2315
3.1 1699
3.2 1572
3.3 1583
3.4 1492
3.5 1361
3.6 1338
3.7 1393
3.8 1283
3.9 1262
4 1327
4.1 1267
4.2 1213
4.3 1282
4.4 1207
4.5 1241
4.6 1215
4.7 1232
4.8 1212
4.9 1216
5 1272
5.1 1284
5.2 1203
5.3 1284
5.4 1278
5.5 1283
5.6 1469
5.7 1632
5.8 1505
5.9 1359
6 1096
6.1 1028
6.2 962
6.3 1027
6.4 942
6.5 1020
6.6 1091
6.7 1034
6.8 947
6.9 846
7 813
7.1 839
7.2 758
7.3 776
7.4 742
7.5 790
7.6 736
7.7 733
7.8 764
7.9 773
8 787
8.1 714
8.2 789
8.3 757
8.4 696
8.5 767
8.6 691
8.7 749
8.8 721
8.9 794
9 751
9.1 777
9.2 788
9.3 818
9.4 887
9.5 806
9.6 758
9.7 701
9.8 742
9.9 705
10 703
10.1 761
10.2 755
10.3 703
10.4 754
10.5 751
10.6 750
10.7 729
10.8 730
10.9 810
11 859
11.1 820
11.2 741
11.3 706
11.4 795
11.5 790
11.6 803
11.7 768
11.8 730
11.9 717
12 739
12.1 710
12.2 754
12.3 700
12.4 699
12.5 773
12.6 749
12.7 743
12.8 754
12.9 704
13 757
13.1 740
13.2 739
13.3 768
13.4 764
13.5 738
13.6 743
13.7 790
13.8 738
13.9 785
14 765
14.1 766
14.2 770
14.3 787
14.4 765
14.5 786
14.6 824
14.7 828
14.8 824
14.9 825
15 832
15.1 842
15.2 904
15.3 903
15.4 823
15.5 880
15.6 887
15.7 905
15.8 902
15.9 897
16 932
16.1 931
16.2 1035
16.3 1009
16.4 1000
16.5 1010
16.6 1006
16.7 1022
16.8 993
16.9 1097
17 1083
17.1 1072
17.2 1131
17.3 1113
17.4 1151
17.5 1105
17.6 1215
17.7 1193
17.8 1208
17.9 1189
18 1249
18.1 1297
18.2 1355
18.3 1257
18.4 1268
18.5 1344
18.6 1405
18.7 1412
18.8 1411
18.9 1440
19 1425
19.1 1458
19.2 1465
19.3 1562
19.4 1552
19.5 1497
19.6 1620
19.7 1665
19.8 1664
19.9 1688
20 1646
20.1 1583
20.2 1632
20.3 1608
20.4 1684
20.5 1589
20.6 1656
20.7 1621
20.8 1646
20.9 1684
21 1613
21.1 1676
21.2 1587
21.3 1687
21.4 1651
21.5 1659
21.6 1701
21.7 1654
21.8 1613
21.9 1652
22 1618
22.1 1582
22.2 1603
22.3 1606
22.4 1629
22.5 1584
22.6 1525
22.7 1492
22.8 1539
22.9 1515
23 1555
23.1 1474
23.2 1487
23.3 1519
23.4 1477
23.5 1428
23.6 1462
23.7 1514
23.8 1566
23.9 1433
24 1416
24.1 1348
24.2 1367
24.3 1303
24.4 1351
24.5 1308
24.6 1332
24.7 1322
24.8 1331
24.9 1326
25 1261
25.1 1206
25.2 1233
25.3 1234
25.4 1268
25.5 1332
25.6 1251
25.7 1241
25.8 1150
25.9 1130
26 1083
26.1 1134
26.2 1134
26.3 1131
26.4 1170
26.5 1170
26.6 1102
26.7 1108
26.8 1041
26.9 1086
27 976
27.1 1090
27.2 1074
27.3 1065
27.4 1122
27.5 1084
27.6 1029
27.7 984
27.8 1033
27.9 1078
28 919
28.1 1007
28.2 1036
28.3 990
28.4 902
28.5 975
28.6 1005
28.7 955
28.8 1050
28.9 1021
29 980
29.1 1011
29.2 958
29.3 969
29.4 946
29.5 928
29.6 928
29.7 935
29.8 957
29.9 968
30 896

File: 2-2.ASC
2.8 5617
2.9 3373
3 2274
3.1 1556
3.2 1475
3.3 1407
3.4 1271
3.5 1246
3.6 1173
3.7 1126
3.8 1043
3.9 1038
4 983
4.1 920
4.2 953
4.3 953
4.4 809
4.5 819
4.6 882
4.7 897
4.8 826
4.9 846
5 799
5.1 772
5.2 831
5.3 848
5.4 863
5.5 976
5.6 1083
5.7 1458
5.8 1596
5.9 1292
6 736
6.1 657
6.2 697
6.3 700
6.4 732
6.5 837
6.6 1019
6.7 1125
6.8 710
6.9 581
7 552
7.1 546
7.2 557
7.3 571
7.4 546
7.5 549
7.6 584
7.7 507
7.8 542
7.9 504
8 517
8.1 534
8.2 537
8.3 499
8.4 510
8.5 484
8.6 508
8.7 480
8.8 518
8.9 453
9 483
9.1 527
9.2 532
9.3 649
9.4 781
9.5 744
9.6 512
9.7 466
9.8 500
9.9 483
10 461
10.1 444
10.2 503
10.3 491
10.4 478
10.5 467
10.6 469
10.7 486
10.8 507
10.9 600
11 702
11.1 739
11.2 507
11.3 478
11.4 545
11.5 548
11.6 584
11.7 440
11.8 438
11.9 422
12 441
12.1 421
12.2 441
12.3 414
12.4 431
12.5 459
12.6 487
12.7 438
12.8 444
12.9 466
13 463
13.1 456
13.2 462
13.3 472
13.4 461
13.5 457
13.6 449
13.7 474
13.8 437
13.9 463
14 436
14.1 442
14.2 496
14.3 473
14.4 475
14.5 549
14.6 498
14.7 451
14.8 456
14.9 473
15 484
15.1 500
15.2 486
15.3 463
15.4 525
15.5 498
15.6 516
15.7 491
15.8 540
15.9 543
16 576
16.1 528
16.2 503
16.3 550
16.4 542
16.5 505
16.6 585
16.7 585
16.8 595
16.9 598
17 555
17.1 633
17.2 686
17.3 688
17.4 591
17.5 593
17.6 615
17.7 639
17.8 650
17.9 633
18 635
18.1 696
18.2 627
18.3 673
18.4 684
18.5 665
18.6 698
18.7 667
18.8 698
18.9 686
19 729
19.1 744
19.2 749
19.3 769
19.4 713
19.5 803
19.6 869
19.7 933
19.8 873
19.9 983
20 975
20.1 789
20.2 785
20.3 807
20.4 761
20.5 807
20.6 788
20.7 819
20.8 829
20.9 851
21 853
21.1 854
21.2 819
21.3 875
21.4 792
21.5 875
21.6 830
21.7 915
21.8 951
21.9 912
22 858
22.1 852
22.2 919
22.3 917
22.4 805
22.5 869
22.6 922
22.7 875
22.8 882
22.9 880
23 877
23.1 880
23.2 872
23.3 853
23.4 891
23.5 877
23.6 961
23.7 1070
23.8 1060
23.9 959
24 927
24.1 912
24.2 870
24.3 842
24.4 842
24.5 921
24.6 846
24.7 879
24.8 943
24.9 1006
25 930
25.1 781
25.2 839
25.3 865
25.4 909
25.5 1007
25.6 1080
25.7 861
25.8 844
25.9 806
26 800
26.1 793
26.2 870
26.3 808
26.4 807
26.5 823
26.6 942
26.7 941
26.8 820
26.9 780
27 771
27.1 786
27.2 785
27.3 849
27.4 932
27.5 1003
27.6 840
27.7 777
27.8 769
27.9 746
28 743
28.1 774
28.2 801
28.3 882
28.4 801
28.5 760
28.6 795
28.7 787
28.8 953
28.9 1001
29 955
29.1 953
29.2 797
29.3 774
29.4 766
29.5 750
29.6 744
29.7 774
29.8 752
29.9 751
30 752

File: 2-17.ASC
2.8 5356
2.9 3380
3 2287
3.1 1638
3.2 1535
3.3 1399
3.4 1402
3.5 1311
3.6 1252
3.7 1170
3.8 1210
3.9 1166
4 1141
4.1 1100
4.2 1053
4.3 1089
4.4 1118
4.5 1142
4.6 1156
4.7 1149
4.8 1140
4.9 1186
5 1141
5.1 1249
5.2 1250
5.3 1323
5.4 1399
5.5 1430
5.6 1703
5.7 2224
5.8 3273
5.9 1121
6 1175
6.1 1166
6.2 1134
6.3 1125
6.4 1188
6.5 1298
6.6 1565
6.7 1727
6.8 964
6.9 946
7 969
7.1 957
7.2 956
7.3 923
7.4 921
7.5 938
7.6 976
7.7 903
7.8 1003
7.9 984
8 955
8.1 919
8.2 940
8.3 938
8.4 971
8.5 947
8.6 933
8.7 1006
8.8 951
8.9 1026
9 1039
9.1 1068
9.2 1175
9.3 1548
9.4 2218
9.5 1109
9.6 996
9.7 1028
9.8 1007
9.9 1054
10 1026
10.1 1034
10.2 1062
10.3 1007
10.4 992
10.5 1024
10.6 1123
10.7 1100
10.8 1262
10.9 1458
11 2387
11.1 1191
11.2 1144
11.3 1145
11.4 1333
11.5 1702
11.6 1097
11.7 1130
11.8 1113
11.9 1127
12 1116
12.1 1097
12.2 1115
12.3 1162
12.4 1133
12.5 1186
12.6 1162
12.7 1164
12.8 1191
12.9 1176
13 1201
13.1 1276
13.2 1313
13.3 1365
13.4 1325
13.5 1337
13.6 1216
13.7 1342
13.8 1340
13.9 1371
14 1324
14.1 1376
14.2 1418
14.3 1469
14.4 1573
14.5 1535
14.6 1471
14.7 1504
14.8 1443
14.9 1463
15 1458
15.1 1551
15.2 1530
15.3 1597
15.4 1548
15.5 1590
15.6 1707
15.7 1678
15.8 1697
15.9 1690
16 1742
16.1 1716
16.2 1789
16.3 1779
16.4 1868
16.5 1853
16.6 1923
16.7 1919
16.8 1912
16.9 1964
17 2081
17.1 2148
17.2 2243
17.3 2101
17.4 2103
17.5 2211
17.6 2229
17.7 2217
17.8 2281
17.9 2358
18 2339
18.1 2382
18.2 2408
18.3 2527
18.4 2504
18.5 2568
18.6 2629
18.7 2514
18.8 2567
18.9 2635
19 2664
19.1 2726
19.2 2791
19.3 2774
19.4 2752
19.5 2932
19.6 3444
19.7 3055
19.8 2952
19.9 3832
20 2939
20.1 2935
20.2 2899
20.3 2836
20.4 2761
20.5 2837
20.6 2962
20.7 2775
20.8 2930
20.9 2884
21 2867
21.1 2847
21.2 2704
21.3 2845
21.4 2809
21.5 2881
21.6 2791
21.7 2818
21.8 2930
21.9 2763
22 2825
22.1 2709
22.2 2696
22.3 2814
22.4 2649
22.5 2559
22.6 2618
22.7 2672
22.8 2685
22.9 2552
23 2664
23.1 2507
23.2 2476
23.3 2546
23.4 2543
23.5 2482
23.6 2528
23.7 3104
23.8 2733
23.9 2395
24 2442
24.1 2390
24.2 2321
24.3 2312
24.4 2285
24.5 2333
24.6 2365
24.7 2313
24.8 2417
24.9 2648
25 2181
25.1 2195
25.2 2256
25.3 2216
25.4 2253
25.5 2668
25.6 2524
25.7 2115
25.8 2006
25.9 2135
26 2107
26.1 2042
26.2 2087
26.3 2045
26.4 2049
26.5 2094
26.6 2490
26.7 2107
26.8 1939
26.9 1995
27 1916
27.1 1963
27.2 1971
27.3 2029
27.4 2269
27.5 2248
27.6 1938
27.7 1897
27.8 1870
27.9 1894
28 1803
28.1 1889
28.2 1962
28.3 2013
28.4 1890
28.5 1856
28.6 1891
28.7 1924
28.8 2124
28.9 2116
29 2063
29.1 2039
29.2 1759
29.3 1781
29.4 1785
29.5 1820
29.6 1754
29.7 1676
29.8 1717
29.9 1782
30 1769

File: 2-22.ASC
2.8 5643
2.9 3907
3 2603
3.1 1926
3.2 1680
3.3 1623
3.4 1505
3.5 1439
3.6 1408
3.7 1474
3.8 1466
3.9 1502
4 1732
4.1 2385
4.2 1437
4.3 1265
4.4 1155
4.5 1064
4.6 991
4.7 1054
4.8 1100
4.9 1146
5 1230
5.1 1401
5.2 1628
5.3 2001
5.4 3156
5.5 2244
5.6 2710
5.7 4026
5.8 6927
5.9 1583
6 886
6.1 848
6.2 833
6.3 872
6.4 830
6.5 832
6.6 901
6.7 1104
6.8 1215
6.9 805
7 764
7.1 749
7.2 646
7.3 721
7.4 670
7.5 716
7.6 625
7.7 658
7.8 710
7.9 676
8 699
8.1 800
8.2 746
8.3 646
8.4 666
8.5 659
8.6 660
8.7 680
8.8 692
8.9 764
9 813
9.1 901
9.2 1042
9.3 1715
9.4 1085
9.5 737
9.6 677
9.7 687
9.8 773
9.9 746
10 799
10.1 940
10.2 1252
10.3 783
10.4 683
10.5 747
10.6 779
10.7 887
10.8 1064
10.9 1155
11 1457
11.1 731
11.2 732
11.3 773
11.4 864
11.5 1276
11.6 780
11.7 716
11.8 680
11.9 711
12 756
12.1 765
12.2 978
12.3 773
12.4 751
12.5 698
12.6 714
12.7 717
12.8 672
12.9 656
13 623
13.1 767
13.2 759
13.3 842
13.4 806
13.5 775
13.6 742
13.7 734
13.8 750
13.9 723
14 728
14.1 782
14.2 739
14.3 845
14.4 852
14.5 767
14.6 832
14.7 810
14.8 926
14.9 857
15 815
15.1 839
15.2 932
15.3 886
15.4 844
15.5 932
15.6 888
15.7 861
15.8 929
15.9 903
16 903
16.1 903
16.2 953
16.3 1087
16.4 964
16.5 972
16.6 939
16.7 1073
16.8 1084
16.9 1318
17 2164
17.1 1285
17.2 1138
17.3 1171
17.4 1163
17.5 1161
17.6 1100
17.7 1104
17.8 1124
17.9 1167
18 1197
18.1 1136
18.2 1202
18.3 1192
18.4 1256
18.5 1200
18.6 1294
18.7 1336
18.8 1456
18.9 1368
19 1386
19.1 1699
19.2 1447
19.3 1396
19.4 1438
19.5 1664
19.6 1551
19.7 1454
19.8 1447
19.9 1538
20 1415
20.1 1488
20.2 1508
20.3 1682
20.4 1499
20.5 1470
20.6 1488
20.7 1478
20.8 1489
20.9 1473
21 1491
21.1 1603
21.2 1586
21.3 1587
21.4 1493
21.5 1513
21.6 1542
21.7 1629
21.8 1508
21.9 1639
22 1784
22.1 1567
22.2 1522
22.3 1557
22.4 1586
22.5 1555
22.6 1528
22.7 1498
22.8 1492
22.9 1508
23 1630
23.1 1848
23.2 1573
23.3 1525
23.4 1506
23.5 1521
23.6 1620
23.7 1565
23.8 1459
23.9 1521
24 1389
24.1 1381
24.2 1416
24.3 1426
24.4 1531
24.5 1750
24.6 1687
24.7 1544
24.8 1610
24.9 1549
25 1476
25.1 1635
25.2 1574
25.3 1688
25.4 1499
25.5 1615
25.6 1468
25.7 1358
25.8 1258
25.9 1299
26 1239
26.1 1312
26.2 1304
26.3 1334
26.4 1250
26.5 1283
26.6 1321
26.7 1372
26.8 1591
26.9 1600
27 1460
27.1 1718
27.2 1570
27.3 1272
27.4 1317
27.5 1182
27.6 1155
27.7 1277
27.8 1261
27.9 1170
28 1141
28.1 1218
28.2 1259
28.3 1547
28.4 1311
28.5 1178
28.6 1236
28.7 1354
28.8 1320
28.9 1214
29 1249
29.1 1176
29.2 1189
29.3 1128
29.4 1063
29.5 1075
29.6 1041
29.7 1077
29.8 1305
29.9 1214
30 1088

File: 2-23.ASC
2.8 5357
2.9 3481
3 2133
3.1 1551
3.2 1431
3.3 1327
3.4 1244
3.5 1253
3.6 1194
3.7 1126
3.8 1140
3.9 1079
4 1130
4.1 1333
4.2 1322
4.3 963
4.4 899
4.5 870
4.6 854
4.7 826
4.8 806
4.9 858
5 856
5.1 914
5.2 990
5.3 1178
5.4 1354
5.5 1539
5.6 1464
5.7 1691
5.8 2294
5.9 2396
6 933
6.1 782
6.2 757
6.3 724
6.4 766
6.5 752
6.6 764
6.7 864
6.8 902
6.9 846
7 747
7.1 712
7.2 698
7.3 646
7.4 661
7.5 673
7.6 730
7.7 731
7.8 693
7.9 736
8 683
8.1 724
8.2 774
8.3 710
8.4 654
8.5 661
8.6 696
8.7 733
8.8 675
8.9 698
9 681
9.1 720
9.2 723
9.3 865
9.4 926
9.5 816
9.6 718
9.7 653
9.8 704
9.9 639
10 707
10.1 692
10.2 785
10.3 770
10.4 679
10.5 677
10.6 686
10.7 744
10.8 774
10.9 858
11 837
11.1 893
11.2 733
11.3 647
11.4 747
11.5 853
11.6 758
11.7 736
11.8 658
11.9 713
12 705
12.1 744
12.2 772
12.3 691
12.4 696
12.5 750
12.6 667
12.7 692
12.8 661
12.9 667
13 687
13.1 678
13.2 741
13.3 715
13.4 720
13.5 692
13.6 712
13.7 735
13.8 774
13.9 759
14 735
14.1 721
14.2 781
14.3 763
14.4 770
14.5 768
14.6 732
14.7 821
14.8 820
14.9 830
15 827
15.1 860
15.2 817
15.3 841
15.4 798
15.5 826
15.6 860
15.7 847
15.8 884
15.9 938
16 828
16.1 860
16.2 892
16.3 936
16.4 979
16.5 924
16.6 926
16.7 967
16.8 999
16.9 1089
17 1350
17.1 1296
17.2 1196
17.3 1085
17.4 1090
17.5 1083
17.6 1097
17.7 1038
17.8 1143
17.9 1167
18 1178
18.1 1141
18.2 1121
18.3 1137
18.4 1187
18.5 1170
18.6 1255
18.7 1312
18.8 1351
18.9 1326
19 1356
19.1 1415
19.2 1404
19.3 1467
19.4 1447
19.5 1496
19.6 1519
19.7 1493
19.8 1487
19.9 1603
20 1538
20.1 1456
20.2 1556
20.3 1559
20.4 1624
20.5 1595
20.6 1551
20.7 1599
20.8 1533
20.9 1610
21 1630
21.1 1588
21.2 1593
21.3 1659
21.4 1556
21.5 1557
21.6 1537
21.7 1575
21.8 1600
21.9 1534
22 1577
22.1 1610
22.2 1532
22.3 1466
22.4 1497
22.5 1445
22.6 1426
22.7 1431
22.8 1468
22.9 1436
23 1400
23.1 1497
23.2 1464
23.3 1408
23.4 1373
23.5 1321
23.6 1346
23.7 1365
23.8 1360
23.9 1290
24 1243
24.1 1283
24.2 1211
24.3 1193
24.4 1196
24.5 1235
24.6 1292
24.7 1207
24.8 1215
24.9 1213
25 1152
25.1 1153
25.2 1180
25.3 1248
25.4 1217
25.5 1137
25.6 1125
25.7 1105
25.8 969
25.9 1005
26 996
26.1 1012
26.2 1008
26.3 979
26.4 945
26.5 932
26.6 974
26.7 962
26.8 974
26.9 1062
27 1032
27.1 1069
27.2 987
27.3 949
27.4 886
27.5 890
27.6 834
27.7 859
27.8 881
27.9 852
28 764
28.1 816
28.2 827
28.3 864
28.4 909
28.5 882
28.6 817
28.7 846
28.8 866
28.9 818
29 814
29.1 799
29.2 818
29.3 771
29.4 790
29.5 743
29.6 733
29.7 724
29.8 798
29.9 789
30 799

File: 2-25.ASC
2.8 5498
2.9 3323
3 2132
3.1 1538
3.2 1347
3.3 1362
3.4 1269
3.5 1176
3.6 1140
3.7 1127
3.8 994
3.9 981
4 958
4.1 988
4.2 935
4.3 902
4.4 882
4.5 855
4.6 895
4.7 834
4.8 834
4.9 892
5 878
5.1 855
5.2 916
5.3 984
5.4 992
5.5 1126
5.6 1376
5.7 1862
5.8 2731
5.9 1666
6 859
6.1 825
6.2 884
6.3 853
6.4 874
6.5 1070
6.6 1286
6.7 1798
6.8 1060
6.9 727
7 738
7.1 720
7.2 722
7.3 678
7.4 677
7.5 685
7.6 698
7.7 742
7.8 674
7.9 719
8 669
8.1 688
8.2 672
8.3 724
8.4 697
8.5 669
8.6 701
8.7 715
8.8 669
8.9 700
9 734
9.1 730
9.2 804
9.3 913
9.4 1212
9.5 1003
9.6 721
9.7 674
9.8 683
9.9 697
10 690
10.1 692
10.2 697
10.3 735
10.4 683
10.5 750
10.6 675
10.7 748
10.8 741
10.9 938
11 1140
11.1 1141
11.2 827
11.3 778
11.4 757
11.5 946
11.6 804
11.7 739
11.8 749
11.9 693
12 685
12.1 695
12.2 752
12.3 701
12.4 695
12.5 737
12.6 689
12.7 756
12.8 703
12.9 746
13 717
13.1 709
13.2 777
13.3 803
13.4 812
13.5 773
13.6 736
13.7 735
13.8 741
13.9 765
14 796
14.1 780
14.2 809
14.3 839
14.4 907
14.5 918
14.6 798
14.7 808
14.8 838
14.9 835
15 831
15.1 844
15.2 819
15.3 842
15.4 895
15.5 865
15.6 920
15.7 852
15.8 919
15.9 941
16 975
16.1 932
16.2 957
16.3 949
16.4 973
16.5 1033
16.6 1043
16.7 1068
16.8 1108
16.9 1054
17 1195
17.1 1185
17.2 1164
17.3 1207
17.4 1124
17.5 1187
17.6 1157
17.7 1214
17.8 1159
17.9 1253
18 1263
18.1 1232
18.2 1275
18.3 1347
18.4 1290
18.5 1356
18.6 1442
18.7 1368
18.8 1396
18.9 1351
19 1375
19.1 1520
19.2 1448
19.3 1413
19.4 1548
19.5 1618
19.6 1766
19.7 1886
19.8 1734
19.9 1918
20 1956
20.1 1569
20.2 1642
20.3 1539
20.4 1632
20.5 1628
20.6 1648
20.7 1673
20.8 1618
20.9 1593
21 1600
21.1 1629
21.2 1620
21.3 1587
21.4 1664
21.5 1652
21.6 1736
21.7 1669
21.8 1756
21.9 1712
22 1610
22.1 1553
22.2 1593
22.3 1602
22.4 1532
22.5 1530
22.6 1480
22.7 1518
22.8 1498
22.9 1484
23 1477
23.1 1543
23.2 1523
23.3 1411
23.4 1459
23.5 1384
23.6 1417
23.7 1616
23.8 1726
23.9 1424
24 1409
24.1 1305
24.2 1284
24.3 1228
24.4 1231
24.5 1216
24.6 1306
24.7 1281
24.8 1334
24.9 1443
25 1268
25.1 1227
25.2 1176
25.3 1193
25.4 1216
25.5 1372
25.6 1504
25.7 1197
25.8 1088
25.9 1089
26 991
26.1 1066
26.2 1040
26.3 1066
26.4 1046
26.5 1107
26.6 1249
26.7 1300
26.8 1098
26.9 1073
27 1026
27.1 1003
27.2 948
27.3 984
27.4 1166
27.5 1278
27.6 1056
27.7 920
27.8 979
27.9 944
28 932
28.1 874
28.2 1003
28.3 985
28.4 926
28.5 880
28.6 893
28.7 907
28.8 1093
28.9 1285
29 1175
29.1 1172
29.2 982
29.3 891
29.4 806
29.5 855
29.6 861
29.7 874
29.8 809
29.9 786
30 791

File: 3-1.ASC
3 2191
3.1 1544
3.2 1421
3.3 1371
3.4 1306
3.5 1280
3.6 1168
3.7 1078
3.8 1036
3.9 1086
4 1072
4.1 1045
4.2 1006
4.3 960
4.4 931
4.5 984
4.6 915
4.7 892
4.8 954
4.9 917
5 931
5.1 946
5.2 1008
5.3 998
5.4 1076
5.5 1143
5.6 1262
5.7 1493
5.8 2171
5.9 1960
6 939
6.1 909
6.2 828
6.3 838
6.4 914
6.5 1004
6.6 1189
6.7 1685
6.8 938
6.9 787
7 746
7.1 721
7.2 757
7.3 751
7.4 686
7.5 706
7.6 759
7.7 724
7.8 722
7.9 743
8 696
8.1 668
8.2 693
8.3 696
8.4 689
8.5 709
8.6 734
8.7 691
8.8 693
8.9 728
9 747
9.1 780
9.2 809
9.3 957
9.4 1277
9.5 1380
9.6 796
9.7 756
9.8 718
9.9 775
10 710
10.1 666
10.2 692
10.3 721
10.4 702
10.5 764
10.6 730
10.7 746
10.8 807
10.9 941
11 1323
11.1 1592
11.2 777
11.3 772
11.4 883
11.5 1079
11.6 1090
11.7 737
11.8 788
11.9 736
12 765
12.1 777
12.2 786
12.3 733
12.4 740
12.5 774
12.6 754
12.7 791
12.8 764
12.9 763
13 797
13.1 844
13.2 858
13.3 989
13.4 854
13.5 805
13.6 816
13.7 782
13.8 834
13.9 777
14 813
14.1 843
14.2 858
14.3 903
14.4 952
14.5 1060
14.6 887
14.7 889
14.8 918
14.9 910
15 932
15.1 945
15.2 957
15.3 986
15.4 992
15.5 968
15.6 986
15.7 1005
15.8 1059
15.9 1060
16 1048
16.1 1054
16.2 1074
16.3 1126
16.4 1124
16.5 1110
16.6 1206
16.7 1146
16.8 1173
16.9 1181
17 1311
17.1 1299
17.2 1401
17.3 1481
17.4 1340
17.5 1292
17.6 1382
17.7 1376
17.8 1386
17.9 1439
18 1488
18.1 1461
18.2 1558
18.3 1494
18.4 1529
18.5 1536
18.6 1659
18.7 1689
18.8 1701
18.9 1663
19 1704
19.1 1767
19.2 1803
19.3 1838
19.4 1819
19.5 1901
19.6 2284
19.7 2480
19.8 2037
19.9 2538
20 2589
20.1 1892
20.2 1943
20.3 1898
20.4 1927
20.5 1906
20.6 1926
20.7 1909
20.8 1932
20.9 1908
21 1950
21.1 1914
21.2 1978
21.3 1927
21.4 1876
21.5 1975
21.6 1950
21.7 2035
21.8 2196
21.9 2027
22 1945
22.1 1949
22.2 1882
22.3 1915
22.4 1976
22.5 1834
22.6 1823
22.7 1846
22.8 1862
22.9 1813
23 1905
23.1 1875
23.2 1759
23.3 1708
23.4 1657
23.5 1686
23.6 1770
23.7 2186
23.8 2383
23.9 1727
24 1776
24.1 1741
24.2 1617
24.3 1583
24.4 1585
24.5 1594
24.6 1607
24.7 1619
24.8 1667
24.9 2026
25 1747
25.1 1500
25.2 1476
25.3 1496
25.4 1550
25.5 1900
25.6 2421
25.7 1694
25.8 1449
25.9 1429
26 1411
26.1 1418
26.2 1308
26.3 1411
26.4 1340
26.5 1451
26.6 1719
26.7 1906
26.8 1423
26.9 1345
27 1329
27.1 1314
27.2 1289
27.3 1404
27.4 1578
27.5 1976
27.6 1513
27.7 1187
27.8 1233
27.9 1241
28 1272
28.1 1200
28.2 1289
28.3 1449
28.4 1318
28.5 1245
28.6 1211
28.7 1312
28.8 1456
28.9 1741
29 1658
29.1 1851
29.2 1453
29.3 1203
29.4 1179
29.5 1186
29.6 1150
29.7 1147
29.8 1201
29.9 1172
30 1141

File: 3-2.ASC
3 2146
3.1 1617
3.2 1458
3.3 1351
3.4 1284
3.5 1191
3.6 1159
3.7 1102
3.8 1038
3.9 1005
4 990
4.1 934
4.2 949
4.3 962
4.4 860
4.5 847
4.6 770
4.7 788
4.8 807
4.9 813
5 832
5.1 851
5.2 854
5.3 943
5.4 995
5.5 1131
5.6 1330
5.7 1724
5.8 3174
5.9 923
6 854
6.1 794
6.2 789
6.3 854
6.4 874
6.5 1004
6.6 1324
6.7 2355
6.8 765
6.9 725
7 653
7.1 676
7.2 681
7.3 646
7.4 634
7.5 663
7.6 679
7.7 633
7.8 698
7.9 683
8 640
8.1 686
8.2 642
8.3 655
8.4 696
8.5 649
8.6 709
8.7 720
8.8 672
8.9 706
9 709
9.1 771
9.2 869
9.3 1077
9.4 1838
9.5 780
9.6 706
9.7 731
9.8 659
9.9 724
10 692
10.1 659
10.2 736
10.3 733
10.4 711
10.5 747
10.6 736
10.7 832
10.8 875
10.9 1067
11 1832
11.1 883
11.2 781
11.3 818
11.4 919
11.5 1359
11.6 767
11.7 724
11.8 765
11.9 758
12 791
12.1 770
12.2 778
12.3 806
12.4 792
12.5 786
12.6 764
12.7 790
12.8 781
12.9 798
13 810
13.1 819
13.2 902
13.3 1121
13.4 859
13.5 805
13.6 834
13.7 844
13.8 853
13.9 860
14 847
14.1 942
14.2 903
14.3 977
14.4 1055
14.5 1094
14.6 970
14.7 991
14.8 985
14.9 1017
15 1025
15.1 1021
15.2 1012
15.3 1075
15.4 1062
15.5 1093
15.6 1116
15.7 1189
15.8 1093
15.9 1223
16 1219
16.1 1201
16.2 1307
16.3 1345
16.4 1276
16.5 1338
16.6 1367
16.7 1382
16.8 1384
16.9 1473
17 1431
17.1 1463
17.2 1627
17.3 1597
17.4 1542
17.5 1614
17.6 1614
17.7 1643
17.8 1692
17.9 1697
18 1746
18.1 1781
18.2 1703
18.3 1885
18.4 1845
18.5 1817
18.6 1850
18.7 1867
18.8 1993
18.9 1968
19 2000
19.1 2092
19.2 2139
19.3 2112
19.4 2255
19.5 2233
19.6 2805
19.7 2684
19.8 2508
19.9 3241
20 2562
20.1 2214
20.2 2180
20.3 2187
20.4 2315
20.5 2284
20.6 2374
20.7 2242
20.8 2313
20.9 2318
21 2298
21.1 2212
21.2 2302
21.3 2307
21.4 2305
21.5 2326
21.6 2368
21.7 2489
21.8 2718
21.9 2436
22 2310
22.1 2352
22.2 2260
22.3 2303
22.4 2260
22.5 2231
22.6 2276
22.7 2223
22.8 2172
22.9 2257
23 2349
23.1 2234
23.2 2205
23.3 2202
23.4 2179
23.5 2214
23.6 2275
23.7 2815
23.8 2694
23.9 2246
24 2328
24.1 1971
24.2 2035
24.3 2016
24.4 2067
24.5 2021
24.6 1968
24.7 1995
24.8 2284
24.9 2689
25 2088
25.1 2010
25.2 2094
25.3 1998
25.4 2009
25.5 2605
25.6 2650
25.7 1963
25.8 1848
25.9 1875
26 1891
26.1 1813
26.2 1842
26.3 1820
26.4 1807
26.5 1849
26.6 2411
26.7 2135
26.8 1840
26.9 1809
27 1739
27.1 1752
27.2 1839
27.3 1846
27.4 2146
27.5 2334
27.6 1653
27.7 1628
27.8 1620
27.9 1677
28 1682
28.1 1681
28.2 1756
28.3 1914
28.4 1655
28.5 1670
28.6 1587
28.7 1693
28.8 1894
28.9 2147
29 1960
29.1 2018
29.2 1582
29.3 1557
29.4 1501
29.5 1554
29.6 1507
29.7 1434
29.8 1494
29.9 1498
30 1456

File: 3-4.ASC
3 2457
3.1 1790
3.2 1644
3.3 1595
3.4 1439
3.5 1263
3.6 1239
3.7 1200
3.8 1095
3.9 1046
4 1032
4.1 966
4.2 908
4.3 900
4.4 896
4.5 832
4.6 846
4.7 847
4.8 805
4.9 826
5 804
5.1 861
5.2 891
5.3 879
5.4 961
5.5 1103
5.6 1283
5.7 1966
5.8 3277
5.9 811
6 740
6.1 716
6.2 727
6.3 742
6.4 831
6.5 1056
6.6 1538
6.7 1554
6.8 704
6.9 684
7 604
7.1 658
7.2 618
7.3 618
7.4 653
7.5 642
7.6 638
7.7 597
7.8 576
7.9 616
8 626
8.1 603
8.2 580
8.3 586
8.4 614
8.5 639
8.6 610
8.7 601
8.8 574
8.9 614
9 638
9.1 664
9.2 768
9.3 1002
9.4 1563
9.5 621
9.6 589
9.7 636
9.8 605
9.9 596
10 558
10.1 597
10.2 535
10.3 580
10.4 600
10.5 617
10.6 606
10.7 690
10.8 781
10.9 947
11 1550
11.1 674
11.2 638
11.3 704
11.4 850
11.5 1159
11.6 672
11.7 663
11.8 613
11.9 563
12 592
12.1 609
12.2 658
12.3 668
12.4 616
12.5 588
12.6 674
12.7 592
12.8 640
12.9 654
13 632
13.1 700
13.2 719
13.3 760
13.4 651
13.5 670
13.6 704
13.7 715
13.8 667
13.9 708
14 696
14.1 728
14.2 721
14.3 758
14.4 852
14.5 833
14.6 809
14.7 781
14.8 798
14.9 770
15 771
15.1 818
15.2 787
15.3 798
15.4 820
15.5 855
15.6 900
15.7 868
15.8 874
15.9 898
16 920
16.1 939
16.2 949
16.3 970
16.4 971
16.5 1006
16.6 973
16.7 1064
16.8 1007
16.9 1055
17 1122
17.1 1124
17.2 1234
17.3 1163
17.4 1198
17.5 1188
17.6 1175
17.7 1200
17.8 1225
17.9 1164
18 1247
18.1 1214
18.2 1266
18.3 1319
18.4 1327
18.5 1370
18.6 1335
18.7 1352
18.8 1413
18.9 1402
19 1405
19.1 1407
19.2 1499
19.3 1485
19.4 1558
19.5 1671
19.6 2098
19.7 1679
19.8 1832
19.9 2243
20 1505
20.1 1591
20.2 1546
20.3 1510
20.4 1524
20.5 1611
20.6 1593
20.7 1482
20.8 1581
20.9 1546
21 1601
21.1 1586
21.2 1612
21.3 1565
21.4 1542
21.5 1480
21.6 1708
21.7 1698
21.8 1604
21.9 1552
22 1584
22.1 1579
22.2 1546
22.3 1553
22.4 1491
22.5 1561
22.6 1541
22.7 1560
22.8 1507
22.9 1540
23 1651
23.1 1589
23.2 1540
23.3 1533
23.4 1491
23.5 1615
23.6 1699
23.7 2054
23.8 1710
23.9 1517
24 1460
24.1 1439
24.2 1432
24.3 1463
24.4 1505
24.5 1438
24.6 1458
24.7 1522
24.8 1795
24.9 1691
25 1425
25.1 1420
25.2 1456
25.3 1509
25.4 1553
25.5 2020
25.6 1611
25.7 1495
25.8 1312
25.9 1397
26 1406
26.1 1366
26.2 1379
26.3 1385
26.4 1342
26.5 1482
26.6 1797
26.7 1415
26.8 1266
26.9 1352
27 1280
27.1 1301
27.2 1364
27.3 1455
27.4 1725
27.5 1428
27.6 1303
27.7 1222
27.8 1277
27.9 1224
28 1341
28.1 1310
28.2 1408
28.3 1346
28.4 1191
28.5 1230
28.6 1265
28.7 1362
28.8 1666
28.9 1554
29 1625
29.1 1353
29.2 1166
29.3 1149
29.4 1205
29.5 1212
29.6 1182
29.7 1205
29.8 1185
29.9 1160
30 1158

File: 3-12.ASC
3 2119
3.1 1581
3.2 1478
3.3 1415
3.4 1267
3.5 1272
3.6 1198
3.7 1281
3.8 1222
3.9 1249
4 1374
4.1 1546
4.2 1527
4.3 1035
4.4 1130
4.5 1008
4.6 1098
4.7 1029
4.8 1064
4.9 1183
5 1147
5.1 1296
5.2 1412
5.3 1788
5.4 2273
5.5 2839
5.6 1997
5.7 2741
5.8 5274
5.9 2488
6 956
6.1 822
6.2 835
6.3 752
6.4 808
6.5 820
6.6 871
6.7 1013
6.8 1339
6.9 842
7 759
7.1 713
7.2 713
7.3 696
7.4 752
7.5 676
7.6 677
7.7 685
7.8 695
7.9 712
8 661
8.1 751
8.2 860
8.3 676
8.4 698
8.5 703
8.6 699
8.7 668
8.8 713
8.9 759
9 746
9.1 875
9.2 1017
9.3 1447
9.4 2330
9.5 761
9.6 691
9.7 733
9.8 773
9.9 776
10 777
10.1 921
10.2 1243
10.3 934
10.4 776
10.5 729
10.6 788
10.7 837
10.8 1226
10.9 1096
11 1849
11.1 921
11.2 749
11.3 793
11.4 838
11.5 1035
11.6 1252
11.7 759
11.8 718
11.9 700
12 753
12.1 753
12.2 914
12.3 1005
12.4 822
12.5 740
12.6 774
12.7 788
12.8 706
12.9 803
13 779
13.1 817
13.2 761
13.3 809
13.4 967
13.5 881
13.6 891
13.7 824
13.8 802
13.9 803
14 803
14.1 858
14.2 884
14.3 868
14.4 973
14.5 894
14.6 899
14.7 937
14.8 943
14.9 1022
15 919
15.1 940
15.2 953
15.3 1031
15.4 990
15.5 939
15.6 987
15.7 984
15.8 982
15.9 1014
16 1019
16.1 1010
16.2 1078
16.3 1158
16.4 1228
16.5 1090
16.6 1123
16.7 1191
16.8 1227
16.9 1413
17 1795
17.1 1325
17.2 1318
17.3 1365
17.4 1308
17.5 1255
17.6 1271
17.7 1317
17.8 1341
17.9 1432
18 1324
18.1 1407
18.2 1357
18.3 1427
18.4 1375
18.5 1357
18.6 1426
18.7 1505
18.8 1706
18.9 1629
19 1611
19.1 1840
19.2 2156
19.3 1639
19.4 1681
19.5 2041
19.6 2227
19.7 1733
19.8 1624
19.9 1950
20 1746
20.1 1726
20.2 1863
20.3 1976
20.4 1947
20.5 1818
20.6 1761
20.7 1812
20.8 1782
20.9 1807
21 1836
21.1 1987
21.2 1921
21.3 1741
21.4 1859
21.5 1759
21.6 1858
21.7 1928
21.8 1858
21.9 1897
22 2317
22.1 1970
22.2 1836
22.3 1840
22.4 1825
22.5 2045
22.6 1784
22.7 1835
22.8 1810
22.9 1863
23 1971
23.1 2203
23.2 2139
23.3 1848
23.4 1791
23.5 1816
23.6 1879
23.7 2134
23.8 1822
23.9 1792
24 1955
24.1 1731
24.2 1663
24.3 1740
24.4 1840
24.5 2144
24.6 2339
24.7 1890
24.8 2319
24.9 2167
25 2037
25.1 2114
25.2 2467
25.3 2561
25.4 1925
25.5 1926
25.6 2335
25.7 1817
25.8 1802
25.9 1674
26 1748
26.1 1716
26.2 1718
26.3 1889
26.4 1713
26.5 1641
26.6 1655
26.7 1771
26.8 2123
26.9 2599
27 1858
27.1 1983
27.2 2711
27.3 1901
27.4 1865
27.5 1677
27.6 1595
27.7 1723
27.8 1807
27.9 1701
28 1597
28.1 1653
28.2 1781
28.3 2105
28.4 2169
28.5 1864
28.6 1710
28.7 1942
28.8 2368
28.9 1775
29 1976
29.1 1818
29.2 1725
29.3 1617
29.4 1484
29.5 1521
29.6 1513
29.7 1560
29.8 1715
29.9 2230
30 1671