Folder: CPC-code/xrd-UiO-67/pxrddata (part 8)

File: 8-19.ASC
3 2256
3.06 1847
3.12 1606
3.18 1535
3.24 1389
3.3 1342
3.36 1316
3.42 1279
3.48 1231
3.54 1252
3.6 1170
3.66 1072
3.72 1118
3.78 1046
3.84 1063
3.9 1056
3.96 927
4.02 950
4.08 898
4.14 924
4.2 837
4.26 848
4.32 822
4.38 787
4.44 827
4.5 772
4.56 789
4.62 767
4.68 716
4.74 752
4.8 678
4.86 728
4.92 694
4.98 768
5.04 685
5.1 696
5.16 682
5.22 663
5.28 670
5.34 666
5.4 610
5.46 675
5.52 681
5.58 651
5.64 670
5.7 632
5.76 683
5.82 599
5.88 652
5.94 627
6 638
6.06 623
6.12 630
6.18 632
6.24 642
6.3 597
6.36 621
6.42 625
6.48 615
6.54 631
6.6 638
6.66 652
6.72 558
6.78 616
6.84 609
6.9 601
6.96 615
7.02 593
7.08 596
7.14 628
7.2 647
7.26 617
7.32 584
7.38 617
7.44 637
7.5 591
7.56 628
7.62 612
7.68 603
7.74 612
7.8 617
7.86 638
7.92 638
7.98 645
8.04 637
8.1 642
8.16 616
8.22 666
8.28 629
8.34 680
8.4 698
8.46 714
8.52 851
8.58 873
8.64 1043
8.7 1219
8.76 1517
8.82 2217
8.88 2829
8.94 1963
9 1977
9.06 2257
9.12 767
9.18 719
9.24 676
9.3 643
9.36 704
9.42 693
9.48 688
9.54 704
9.6 789
9.66 881
9.72 917
9.78 1112
9.84 1472
9.9 2150
9.96 2725
10.02 1088
10.08 761
10.14 709
10.2 683
10.26 647
10.32 653
10.38 615
10.44 618
10.5 590
10.56 572
10.62 630
10.68 589
10.74 553
10.8 580
10.86 562
10.92 558
10.98 582
11.04 602
11.1 559
11.16 549
11.22 607
11.28 548
11.34 569
11.4 555
11.46 546
11.52 625
11.58 560
11.64 577
11.7 534
11.76 560
11.82 561
11.88 583
11.94 584
12 569
12.06 601
12.12 556
12.18 598
12.24 566
12.3 648
12.36 650
12.42 643
12.48 700
12.54 794
12.6 993
12.66 1042
12.72 763
12.78 673
12.84 590
12.9 601
12.96 605
13.02 617
13.08 663
13.14 640
13.2 705
13.26 866
13.32 1152
13.38 1561
13.44 1529
13.5 731
13.56 631
13.62 577
13.68 594
13.74 563
13.8 611
13.86 625
13.92 637
13.98 583
14.04 614
14.1 610
14.16 653
14.22 581
14.28 644
14.34 602
14.4 614
14.46 621
14.52 614
14.58 611
14.64 627
14.7 612
14.76 620
14.82 637
14.88 642
14.94 636
15 624
15.06 697
15.12 698
15.18 725
15.24 671
15.3 650
15.36 711
15.42 660
15.48 724
15.54 694
15.6 715
15.66 677
15.72 719
15.78 690
15.84 654
15.9 733
15.96 709
16.02 716
16.08 676
16.14 682
16.2 693
16.26 744
16.32 749
16.38 701
16.44 761
16.5 712
16.56 759
16.62 707
16.68 761
16.74 783
16.8 783
16.86 899
16.92 1041
16.98 1166
17.04 1449
17.1 1085
17.16 892
17.22 861
17.28 780
17.34 838
17.4 822
17.46 805
17.52 849
17.58 886
17.64 906
17.7 947
17.76 936
17.82 885
17.88 849
17.94 908
18 941
18.06 948
18.12 878
18.18 954
18.24 1011
18.3 994
18.36 947
18.42 958
18.48 975
18.54 938
18.6 978
18.66 975
18.72 953
18.78 973
18.84 951
18.9 940
18.96 972
19.02 1049
19.08 990
19.14 1008
19.2 991
19.26 1000
19.32 999
19.38 1008
19.44 1024
19.5 1016
19.56 1052
19.62 1112
19.68 1125
19.74 1172
19.8 1371
19.86 1733
19.92 1463
19.98 1416
20 1372

File: 8-20.ASC
3 2606
3.06 2158
3.12 2013
3.18 1855
3.24 1762
3.3 1627
3.36 1502
3.42 1534
3.48 1492
3.54 1351
3.6 1268
3.66 1240
3.72 1236
3.78 1113
3.84 1138
3.9 1052
3.96 1089
4.02 1120
4.08 1011
4.14 1022
4.2 960
4.26 965
4.32 925
4.38 950
4.44 872
4.5 797
4.56 832
4.62 808
4.68 829
4.74 795
4.8 795
4.86 804
4.92 802
4.98 756
5.04 762
5.1 750
5.16 739
5.22 730
5.28 664
5.34 744
5.4 716
5.46 729
5.52 701
5.58 684
5.64 696
5.7 739
5.76 728
5.82 684
5.88 698
5.94 735
6 694
6.06 660
6.12 709
6.18 737
6.24 710
6.3 659
6.36 659
6.42 677
6.48 678
6.54 691
6.6 694
6.66 686
6.72 721
6.78 658
6.84 696
6.9 666
6.96 674
7.02 684
7.08 694
7.14 699
7.2 664
7.26 714
7.32 653
7.38 689
7.44 705
7.5 679
7.56 631
7.62 652
7.68 668
7.74 670
7.8 657
7.86 645
7.92 669
7.98 706
8.04 720
8.1 705
8.16 722
8.22 703
8.28 735
8.34 775
8.4 847
8.46 921
8.52 966
8.58 1211
8.64 1305
8.7 1790
8.76 2357
8.82 2895
8.88 2025
8.94 2314
9 2167
9.06 1017
9.12 903
9.18 907
9.24 909
9.3 894
9.36 831
9.42 810
9.48 864
9.54 902
9.6 965
9.66 1140
9.72 1361
9.78 1720
9.84 2502
9.9 2812
9.96 1405
10.02 920
10.08 810
10.14 731
10.2 742
10.26 701
10.32 679
10.38 641
10.44 631
10.5 665
10.56 641
10.62 638
10.68 673
10.74 639
10.8 649
10.86 701
10.92 620
10.98 594
11.04 668
11.1 611
11.16 610
11.22 611
11.28 608
11.34 611
11.4 614
11.46 621
11.52 596
11.58 564
11.64 570
11.7 633
11.76 572
11.82 607
11.88 621
11.94 653
12 652
12.06 658
12.12 590
12.18 689
12.24 627
12.3 677
12.36 678
12.42 729
12.48 875
12.54 1040
12.6 933
12.66 820
12.72 763
12.78 675
12.84 671
12.9 686
12.96 682
13.02 662
13.08 762
13.14 777
13.2 914
13.26 1027
13.32 1422
13.38 1268
13.44 748
13.5 678
13.56 643
13.62 616
13.68 625
13.74 652
13.8 658
13.86 654
13.92 679
13.98 642
14.04 605
14.1 639
14.16 617
14.22 622
14.28 674
14.34 666
14.4 653
14.46 700
14.52 654
14.58 649
14.64 669
14.7 704
14.76 632
14.82 659
14.88 689
14.94 638
15 668
15.06 647
15.12 665
15.18 703
15.24 709
15.3 729
15.36 726
15.42 731
15.48 696
15.54 700
15.6 699
15.66 692
15.72 734
15.78 741
15.84 721
15.9 668
15.96 712
16.02 658
16.08 740
16.14 747
16.2 747
16.26 756
16.32 746
16.38 772
16.44 801
16.5 771
16.56 758
16.62 773
16.68 835
16.74 923
16.8 873
16.86 989
16.92 1337
16.98 1614
17.04 1138
17.1 815
17.16 876
17.22 833
17.28 791
17.34 840
17.4 806
17.46 830
17.52 845
17.58 882
17.64 948
17.7 927
17.76 913
17.82 921
17.88 945
17.94 976
18 972
18.06 939
18.12 967
18.18 958
18.24 1053
18.3 936
18.36 967
18.42 991
18.48 965
18.54 935
18.6 974
18.66 1032
18.72 995
18.78 957
18.84 969
18.9 1017
18.96 1022
19.02 977
19.08 1007
19.14 1040
19.2 1033
19.26 1013
19.32 1107
19.38 1057
19.44 1094
19.5 1072
19.56 1134
19.62 1211
19.68 1193
19.74 1456
19.8 1500
19.86 1398
19.92 1331
19.98 1446
20 1402

File: 9-3.ASC
3 1911
3.06 1628
3.12 1479
3.18 1371
3.24 1322
3.3 1341
3.36 1213
3.42 1182
3.48 1114
3.54 1175
3.6 1057
3.66 1073
3.72 990
3.78 980
3.84 1020
3.9 969
3.96 930
4.02 871
4.08 945
4.14 806
4.2 845
4.26 856
4.32 853
4.38 741
4.44 823
4.5 712
4.56 739
4.62 734
4.68 722
4.74 731
4.8 707
4.86 747
4.92 713
4.98 764
5.04 671
5.1 683
5.16 638
5.22 697
5.28 676
5.34 663
5.4 669
5.46 655
5.52 656
5.58 664
5.64 639
5.7 632
5.76 652
5.82 642
5.88 630
5.94 649
6 633
6.06 655
6.12 660
6.18 651
6.24 651
6.3 669
6.36 687
6.42 646
6.48 672
6.54 676
6.6 635
6.66 626
6.72 624
6.78 633
6.84 687
6.9 619
6.96 643
7.02 652
7.08 675
7.14 678
7.2 619
7.26 636
7.32 649
7.38 653
7.44 654
7.5 653
7.56 631
7.62 658
7.68 611
7.74 664
7.8 679
7.86 666
7.92 645
7.98 633
8.04 633
8.1 630
8.16 652
8.22 666
8.28 633
8.34 635
8.4 649
8.46 630
8.52 618
8.58 681
8.64 671
8.7 688
8.76 709
8.82 782
8.88 909
8.94 1014
9 1138
9.06 1274
9.12 1339
9.18 1092
9.24 879
9.3 728
9.36 682
9.42 708
9.48 719
9.54 754
9.6 728
9.66 755
9.72 810
9.78 873
9.84 898
9.9 941
9.96 1129
10.02 1184
10.08 1285
10.14 1027
10.2 852
10.26 719
10.32 704
10.38 651
10.44 605
10.5 634
10.56 685
10.62 663
10.68 649
10.74 655
10.8 636
10.86 646
10.92 623
10.98 601
11.04 622
11.1 632
11.16 623
11.22 657
11.28 620
11.34 644
11.4 607
11.46 654
11.52 662
11.58 627
11.64 654
11.7 632
11.76 627
11.82 570
11.88 653
11.94 603
12 599
12.06 634
12.12 599
12.18 681
12.24 602
12.3 633
12.36 599
12.42 628
12.48 599
12.54 704
12.6 699
12.66 747
12.72 772
12.78 673
12.84 687
12.9 695
12.96 656
13.02 632
13.08 603
13.14 678
13.2 657
13.26 662
13.32 670
13.38 682
13.44 684
13.5 683
13.56 630
13.62 642
13.68 680
13.74 694
13.8 645
13.86 631
13.92 668
13.98 655
14.04 640
14.1 657
14.16 651
14.22 695
14.28 632
14.34 634
14.4 654
14.46 661
14.52 709
14.58 683
14.64 626
14.7 618
14.76 682
14.82 679
14.88 695
14.94 726
15 636
15.06 694
15.12 629
15.18 626
15.24 726
15.3 708
15.36 690
15.42 702
15.48 722
15.54 682
15.6 720
15.66 720
15.72 708
15.78 740
15.84 710
15.9 757
15.96 756
16.02 748
16.08 734
16.14 765
16.2 708
16.26 764
16.32 755
16.38 791
16.44 734
16.5 785
16.56 771
16.62 762
16.68 820
16.74 793
16.8 835
16.86 872
16.92 883
16.98 1001
17.04 1075
17.1 1175
17.16 1132
17.22 948
17.28 871
17.34 834
17.4 864
17.46 853
17.52 928
17.58 866
17.64 832
17.7 921
17.76 938
17.82 874
17.88 969
17.94 894
18 939
18.06 935
18.12 943
18.18 992
18.24 913
18.3 1028
18.36 969
18.42 1014
18.48 1041
18.54 1016
18.6 985
18.66 1030
18.72 1059
18.78 1003
18.84 1007
18.9 994
18.96 1076
19.02 1026
19.08 1124
19.14 1124
19.2 1119
19.26 1071
19.32 1128
19.38 1090
19.44 1147
19.5 1083
19.56 1160
19.62 1119
19.68 1223
19.74 1139
19.8 1263
19.86 1212
19.92 1353
19.98 1339
20 1322

File: 9-4.ASC
3 1939
3.06 1625
3.12 1395
3.18 1348
3.24 1281
3.3 1254
3.36 1246
3.42 1167
3.48 1130
3.54 1079
3.6 1089
3.66 1017
3.72 1025
3.78 993
3.84 927
3.9 978
3.96 949
4.02 930
4.08 867
4.14 834
4.2 881
4.26 835
4.32 798
4.38 838
4.44 808
4.5 756
4.56 783
4.62 754
4.68 738
4.74 739
4.8 723
4.86 695
4.92 715
4.98 692
5.04 771
5.1 785
5.16 753
5.22 831
5.28 861
5.34 1000
5.4 1108
5.46 1290
5.52 1466
5.58 1511
5.64 1285
5.7 1334
5.76 1375
5.82 1418
5.88 1312
5.94 1061
6 884
6.06 710
6.12 695
6.18 693
6.24 706
6.3 660
6.36 650
6.42 613
6.48 682
6.54 661
6.6 676
6.66 673
6.72 705
6.78 787
6.84 768
6.9 776
6.96 800
7.02 795
7.08 840
7.14 787
7.2 867
7.26 842
7.32 904
7.38 849
7.44 891
7.5 819
7.56 841
7.62 760
7.68 731
7.74 659
7.8 648
7.86 649
7.92 603
7.98 619
8.04 664
8.1 577
8.16 574
8.22 569
8.28 611
8.34 594
8.4 598
8.46 605
8.52 592
8.58 561
8.64 587
8.7 573
8.76 574
8.82 589
8.88 564
8.94 558
9 564
9.06 608
9.12 614
9.18 623
9.24 634
9.3 710
9.36 805
9.42 900
9.48 944
9.54 635
9.6 599
9.66 637
9.72 626
9.78 550
9.84 580
9.9 586
9.96 580
10.02 582
10.08 575
10.14 597
10.2 626
10.26 600
10.32 578
10.38 602
10.44 597
10.5 545
10.56 556
10.62 535
10.68 565
10.74 631
10.8 663
10.86 741
10.92 748
10.98 773
11.04 760
11.1 764
11.16 624
11.22 560
11.28 541
11.34 548
11.4 531
11.46 624
11.52 550
11.58 601
11.64 613
11.7 614
11.76 554
11.82 573
11.88 532
11.94 543
12 584
12.06 618
12.12 581
12.18 600
12.24 591
12.3 627
12.36 587
12.42 599
12.48 560
12.54 555
12.6 573
12.66 588
12.72 525
12.78 570
12.84 545
12.9 567
12.96 545
13.02 568
13.08 548
13.14 553
13.2 546
13.26 589
13.32 607
13.38 563
13.44 587
13.5 537
13.56 577
13.62 543
13.68 557
13.74 567
13.8 593
13.86 606
13.92 607
13.98 608
14.04 581
14.1 586
14.16 634
14.22 643
14.28 604
14.34 647
14.4 642
14.46 640
14.52 598
14.58 615
14.64 607
14.7 606
14.76 672
14.82 639
14.88 606
14.94 628
15 625
15.06 618
15.12 618
15.18 657
15.24 686
15.3 627
15.36 636
15.42 634
15.48 653
15.54 659
15.6 658
15.66 683
15.72 676
15.78 657
15.84 694
15.9 671
15.96 743
16.02 745
16.08 702
16.14 730
16.2 757
16.26 742
16.32 699
16.38 739
16.44 778
16.5 750
16.56 731
16.62 729
16.68 757
16.74 771
16.8 793
16.86 782
16.92 826
16.98 966
17.04 1122
17.1 1161
17.16 1092
17.22 845
17.28 838
17.34 822
17.4 866
17.46 870
17.52 847
17.58 843
17.64 909
17.7 844
17.76 861
17.82 863
17.88 897
17.94 895
18 918
18.06 908
18.12 944
18.18 918
18.24 886
18.3 956
18.36 993
18.42 1026
18.48 984
18.54 1014
18.6 1038
18.66 1045
18.72 1043
18.78 1108
18.84 1102
18.9 1011
18.96 1064
19.02 1099
19.08 1035
19.14 1143
19.2 1165
19.26 1126
19.32 1148
19.38 1129
19.44 1218
19.5 1188
19.56 1290
19.62 1325
19.68 1251
19.74 1218
19.8 1171
19.86 1151
19.92 1243
19.98 1203
20 1183

File: 9-5-1.ASC
3 1939
3.06 1482
3.12 1337
3.18 1297
3.24 1245
3.3 1187
3.36 1172
3.42 1173
3.48 1138
3.54 1101
3.6 1030
3.66 1057
3.72 931
3.78 972
3.84 914
3.9 890
3.96 870
4.02 806
4.08 797
4.14 765
4.2 831
4.26 745
4.32 705
4.38 714
4.44 668
4.5 708
4.56 722
4.62 692
4.68 662
4.74 704
4.8 646
4.86 661
4.92 609
4.98 659
5.04 601
5.1 623
5.16 649
5.22 610
5.28 598
5.34 624
5.4 597
5.46 589
5.52 566
5.58 628
5.64 565
5.7 584
5.76 593
5.82 601
5.88 595
5.94 605
6 593
6.06 633
6.12 576
6.18 603
6.24 593
6.3 578
6.36 554
6.42 619
6.48 591
6.54 611
6.6 626
6.66 606
6.72 600
6.78 594
6.84 633
6.9 611
6.96 627
7.02 599
7.08 629
7.14 619
7.2 618
7.26 653
7.32 584
7.38 595
7.44 611
7.5 664
7.56 632
7.62 586
7.68 570
7.74 640
7.8 670
7.86 670
7.92 627
7.98 617
8.04 635
8.1 619
8.16 715
8.22 685
8.28 662
8.34 699
8.4 717
8.46 755
8.52 746
8.58 872
8.64 931
8.7 1151
8.76 1376
8.82 1711
8.88 2135
8.94 3039
9 4534
9.06 3816
9.12 3297
9.18 1004
9.24 819
9.3 755
9.36 765
9.42 769
9.48 771
9.54 786
9.6 855
9.66 920
9.72 1051
9.78 1220
9.84 1508
9.9 1943
9.96 2890
10.02 4347
10.08 2405
10.14 849
10.2 782
10.26 709
10.32 698
10.38 692
10.44 677
10.5 717
10.56 677
10.62 723
10.68 683
10.74 705
10.8 643
10.86 674
10.92 733
10.98 696
11.04 707
11.1 677
11.16 675
11.22 659
11.28 653
11.34 638
11.4 664
11.46 692
11.52 711
11.58 687
11.64 704
11.7 633
11.76 676
11.82 690
11.88 674
11.94 688
12 698
12.06 696
12.12 688
12.18 729
12.24 694
12.3 703
12.36 741
12.42 716
12.48 795
12.54 816
12.6 947
12.66 1127
12.72 1413
12.78 1245
12.84 902
12.9 780
12.96 759
13.02 819
13.08 765
13.14 858
13.2 865
13.26 1052
13.32 1142
13.38 1563
13.44 2188
13.5 2552
13.56 1320
13.62 857
13.68 764
13.74 718
13.8 740
13.86 717
13.92 733
13.98 773
14.04 708
14.1 729
14.16 751
14.22 763
14.28 701
14.34 742
14.4 767
14.46 769
14.52 790
14.58 784
14.64 777
14.7 762
14.76 781
14.82 779
14.88 788
14.94 798
15 749
15.06 728
15.12 845
15.18 780
15.24 799
15.3 809
15.36 806
15.42 805
15.48 811
15.54 861
15.6 840
15.66 808
15.72 854
15.78 845
15.84 849
15.9 875
15.96 833
16.02 894
16.08 859
16.14 849
16.2 868
16.26 891
16.32 892
16.38 855
16.44 916
16.5 909
16.56 917
16.62 965
16.68 877
16.74 998
16.8 957
16.86 993
16.92 1021
16.98 1088
17.04 1357
17.1 1584
17.16 1322
17.22 1047
17.28 1015
17.34 983
17.4 1011
17.46 1004
17.52 1022
17.58 1084
17.64 1104
17.7 1089
17.76 1093
17.82 1186
17.88 1235
17.94 1255
18 1170
18.06 1194
18.12 1160
18.18 1231
18.24 1110
18.3 1151
18.36 1244
18.42 1371
18.48 1365
18.54 1289
18.6 1289
18.66 1226
18.72 1185
18.78 1294
18.84 1243
18.9 1195
18.96 1245
19.02 1278
19.08 1273
19.14 1227
19.2 1277
19.26 1331
19.32 1253
19.38 1355
19.44 1336
19.5 1325
19.56 1371
19.62 1421
19.68 1377
19.74 1445
19.8 1545
19.86 1784
19.92 2254
19.98 2459
20 2381

File: 9-5.ASC
3 1933
3.06 1388
3.12 1203
3.18 1221
3.24 1107
3.3 1063
3.36 1067
3.42 1036
3.48 1073
3.54 985
3.6 955
3.66 968
3.72 928
3.78 955
3.84 885
3.9 791
3.96 858
4.02 818
4.08 783
4.14 770
4.2 772
4.26 739
4.32 725
4.38 672
4.44 668
4.5 725
4.56 672
4.62 657
4.68 617
4.74 638
4.8 627
4.86 630
4.92 605
4.98 643
5.04 655
5.1 565
5.16 603
5.22 589
5.28 589
5.34 635
5.4 568
5.46 581
5.52 604
5.58 597
5.64 633
5.7 637
5.76 680
5.82 637
5.88 636
5.94 609
6 661
6.06 588
6.12 576
6.18 634
6.24 594
6.3 594
6.36 587
6.42 575
6.48 563
6.54 571
6.6 541
6.66 543
6.72 610
6.78 579
6.84 564
6.9 608
6.96 608
7.02 570
7.08 554
7.14 639
7.2 605
7.26 569
7.32 606
7.38 614
7.44 597
7.5 633
7.56 605
7.62 593
7.68 581
7.74 588
7.8 574
7.86 574
7.92 599
7.98 595
8.04 619
8.1 656
8.16 633
8.22 620
8.28 601
8.34 553
8.4 577
8.46 580
8.52 567
8.58 616
8.64 595
8.7 654
8.76 631
8.82 656
8.88 635
8.94 671
9 635
9.06 651
9.12 662
9.18 620
9.24 616
9.3 630
9.36 608
9.42 623
9.48 595
9.54 629
9.6 601
9.66 568
9.72 574
9.78 566
9.84 571
9.9 566
9.96 623
10.02 584
10.08 594
10.14 539
10.2 586
10.26 606
10.32 614
10.38 613
10.44 593
10.5 628
10.56 644
10.62 538
10.68 632
10.74 548
10.8 583
10.86 564
10.92 595
10.98 608
11.04 609
11.1 625
11.16 581
11.22 604
11.28 637
11.34 631
11.4 675
11.46 695
11.52 905
11.58 802
11.64 679
11.7 620
11.76 676
11.82 644
11.88 673
11.94 673
12 657
12.06 585
12.12 638
12.18 617
12.24 641
12.3 616
12.36 670
12.42 668
12.48 674
12.54 649
12.6 693
12.66 674
12.72 677
12.78 680
12.84 647
12.9 687
12.96 732
13.02 649
13.08 681
13.14 684
13.2 720
13.26 719
13.32 728
13.38 731
13.44 702
13.5 712
13.56 728
13.62 731
13.68 762
13.74 744
13.8 756
13.86 760
13.92 770
13.98 781
14.04 715
14.1 794
14.16 803
14.22 750
14.28 773
14.34 788
14.4 842
14.46 774
14.52 868
14.58 886
14.64 863
14.7 855
14.76 876
14.82 854
14.88 893
14.94 933
15 866
15.06 923
15.12 972
15.18 960
15.24 898
15.3 947
15.36 964
15.42 980
15.48 956
15.54 996
15.6 1070
15.66 1027
15.72 994
15.78 1005
15.84 1084
15.9 1088
15.96 1090
16.02 1072
16.08 1061
16.14 1061
16.2 1110
16.26 1185
16.32 1117
16.38 1168
16.44 1180
16.5 1162
16.56 1185
16.62 1213
16.68 1235
16.74 1182
16.8 1238
16.86 1241
16.92 1310
16.98 1309
17.04 1284
17.1 1350
17.16 1336
17.22 1320
17.28 1331
17.34 1379
17.4 1336
17.46 1372
17.52 1361
17.58 1395
17.64 1473
17.7 1474
17.76 1430
17.82 1436
17.88 1451
17.94 1408
18 1509
18.06 1527
18.12 1515
18.18 1515
18.24 1605
18.3 1540
18.36 1585
18.42 1584
18.48 1585
18.54 1664
18.6 1623
18.66 1640
18.72 1754
18.78 1705
18.84 1695
18.9 1699
18.96 1750
19.02 1761
19.08 1777
19.14 1738
19.2 1795
19.26 1804
19.32 1791
19.38 1769
19.44 1789
19.5 1842
19.56 1900
19.62 1900
19.68 1845
19.74 1844
19.8 1854
19.86 1960
19.92 1908
19.98 1949
20 1858

File: 9-8.ASC
3 2412
3.06 1909
3.12 1608
3.18 1565
3.24 1461
3.3 1358
3.36 1291
3.42 1251
3.48 1214
3.54 1200
3.6 1179
3.66 1089
3.72 1082
3.78 1001
3.84 1033
3.9 973
3.96 964
4.02 967
4.08 936
4.14 918
4.2 899
4.26 868
4.32 817
4.38 814
4.44 858
4.5 770
4.56 840
4.62 731
4.68 787
4.74 800
4.8 747
4.86 757
4.92 766
4.98 692
5.04 741
5.1 734
5.16 706
5.22 737
5.28 758
5.34 685
5.4 729
5.46 726
5.52 751
5.58 755
5.64 760
5.7 744
5.76 766
5.82 713
5.88 738
5.94 693
6 687
6.06 712
6.12 738
6.18 709
6.24 754
6.3 710
6.36 742
6.42 689
6.48 775
6.54 775
6.6 729
6.66 744
6.72 713
6.78 744
6.84 705
6.9 713
6.96 740
7.02 745
7.08 742
7.14 742
7.2 773
7.26 695
7.32 776
7.38 728
7.44 752
7.5 738
7.56 777
7.62 744
7.68 784
7.74 780
7.8 744
7.86 759
7.92 782
7.98 829
8.04 835
8.1 799
8.16 870
8.22 916
8.28 881
8.34 947
8.4 960
8.46 1080
8.52 1240
8.58 1472
8.64 1676
8.7 2090
8.76 2687
8.82 3773
8.88 4974
8.94 4577
9 4849
9.06 2645
9.12 1504
9.18 1321
9.24 1268
9.3 1239
9.36 1215
9.42 1203
9.48 1222
9.54 1239
9.6 1371
9.66 1543
9.72 1981
9.78 2356
9.84 3198
9.9 4707
9.96 4421
10.02 2107
10.08 1416
10.14 1199
10.2 1048
10.26 996
10.32 967
10.38 893
10.44 907
10.5 913
10.56 870
10.62 843
10.68 917
10.74 934
10.8 908
10.86 881
10.92 853
10.98 872
11.04 863
11.1 866
11.16 846
11.22 833
11.28 820
11.34 865
11.4 852
11.46 816
11.52 854
11.58 855
11.64 874
11.7 881
11.76 811
11.82 853
11.88 842
11.94 849
12 819
12.06 907
12.12 868
12.18 890
12.24 911
12.3 934
12.36 1006
12.42 1116
12.48 1179
12.54 1374
12.6 1554
12.66 1622
12.72 1339
12.78 1152
12.84 1063
12.9 1055
12.96 1070
13.02 1053
13.08 1072
13.14 1267
13.2 1392
13.26 1543
13.32 2019
13.38 2405
13.44 1898
13.5 1187
13.56 995
13.62 996
13.68 987
13.74 942
13.8 1007
13.86 978
13.92 946
13.98 975
14.04 976
14.1 1001
14.16 955
14.22 1001
14.28 965
14.34 998
14.4 912
14.46 976
14.52 1027
14.58 1005
14.64 992
14.7 1013
14.76 983
14.82 984
14.88 1044
14.94 980
15 1033
15.06 1005
15.12 988
15.18 1033
15.24 1087
15.3 1066
15.36 1036
15.42 1017
15.48 1047
15.54 1095
15.6 1126
15.66 1034
15.72 1071
15.78 1169
15.84 1117
15.9 1092
15.96 1106
16.02 1130
16.08 1133
16.14 1105
16.2 1141
16.26 1122
16.32 1100
16.38 1144
16.44 1155
16.5 1154
16.56 1167
16.62 1210
16.68 1194
16.74 1372
16.8 1418
16.86 1465
16.92 1730
16.98 2051
17.04 2201
17.1 1469
17.16 1264
17.22 1284
17.28 1281
17.34 1247
17.4 1249
17.46 1271
17.52 1261
17.58 1304
17.64 1323
17.7 1347
17.76 1457
17.82 1384
17.88 1398
17.94 1390
18 1414
18.06 1361
18.12 1405
18.18 1466
18.24 1422
18.3 1495
18.36 1450
18.42 1408
18.48 1394
18.54 1414
18.6 1394
18.66 1385
18.72 1404
18.78 1452
18.84 1497
18.9 1433
18.96 1391
19.02 1490
19.08 1470
19.14 1437
19.2 1526
19.26 1461
19.32 1517
19.38 1494
19.44 1490
19.5 1524
19.56 1576
19.62 1625
19.68 1692
19.74 1867
19.8 2037
19.86 2175
19.92 2097
19.98 2028
20 2046

File: 9-9.ASC
3 2334
3.06 1878
3.12 1665
3.18 1547
3.24 1492
3.3 1364
3.36 1374
3.42 1353
3.48 1301
3.54 1203
3.6 1167
3.66 1141
3.72 1114
3.78 1054
3.84 1085
3.9 1053
3.96 965
4.02 1016
4.08 908
4.14 963
4.2 930
4.26 893
4.32 853
4.38 854
4.44 787
4.5 852
4.56 782
4.62 814
4.68 780
4.74 771
4.8 741
4.86 765
4.92 759
4.98 721
5.04 709
5.1 740
5.16 724
5.22 667
5.28 693
5.34 757
5.4 697
5.46 699
5.52 730
5.58 680
5.64 696
5.7 694
5.76 654
5.82 707
5.88 675
5.94 691
6 674
6.06 683
6.12 649
6.18 675
6.24 689
6.3 722
6.36 692
6.42 677
6.48 663
6.54 675
6.6 659
6.66 662
6.72 671
6.78 694
6.84 698
6.9 694
6.96 676
7.02 696
7.08 721
7.14 667
7.2 629
7.26 757
7.32 686
7.38 669
7.44 683
7.5 671
7.56 725
7.62 686
7.68 676
7.74 739
7.8 714
7.86 686
7.92 661
7.98 676
8.04 722
8.1 696
8.16 676
8.22 705
8.28 699
8.34 710
8.4 662
8.46 734
8.52 765
8.58 749
8.64 819
8.7 869
8.76 915
8.82 1082
8.88 1198
8.94 1332
9 1447
9.06 1348
9.12 1155
9.18 1070
9.24 953
9.3 879
9.36 844
9.42 818
9.48 798
9.54 850
9.6 778
9.66 802
9.72 884
9.78 959
9.84 1049
9.9 1160
9.96 1209
10.02 1205
10.08 1062
10.14 970
10.2 933
10.26 866
10.32 770
10.38 770
10.44 726
10.5 682
10.56 677
10.62 696
10.68 697
10.74 675
10.8 663
10.86 676
10.92 661
10.98 630
11.04 628
11.1 649
11.16 681
11.22 623
11.28 647
11.34 686
11.4 654
11.46 675
11.52 627
11.58 639
11.64 592
11.7 623
11.76 623
11.82 623
11.88 658
11.94 663
12 618
12.06 636
12.12 631
12.18 625
12.24 668
12.3 679
12.36 645
12.42 654
12.48 672
12.54 716
12.6 759
12.66 738
12.72 708
12.78 711
12.84 735
12.9 732
12.96 704
13.02 666
13.08 651
13.14 669
13.2 708
13.26 706
13.32 667
13.38 711
13.44 678
13.5 670
13.56 660
13.62 623
13.68 634
13.74 635
13.8 686
13.86 660
13.92 681
13.98 649
14.04 651
14.1 658
14.16 636
14.22 635
14.28 660
14.34 691
14.4 667
14.46 682
14.52 644
14.58 742
14.64 721
14.7 683
14.76 745
14.82 680
14.88 673
14.94 695
15 716
15.06 731
15.12 683
15.18 729
15.24 693
15.3 720
15.36 688
15.42 699
15.48 766
15.54 752
15.6 727
15.66 773
15.72 713
15.78 770
15.84 709
15.9 793
15.96 761
16.02 756
16.08 771
16.14 756
16.2 762
16.26 766
16.32 820
16.38 763
16.44 780
16.5 774
16.56 763
16.62 788
16.68 846
16.74 874
16.8 882
16.86 915
16.92 1044
16.98 1251
17.04 1222
17.1 1158
17.16 1049
17.22 996
17.28 936
17.34 955
17.4 929
17.46 876
17.52 920
17.58 933
17.64 1018
17.7 938
17.76 974
17.82 970
17.88 962
17.94 976
18 1017
18.06 1003
18.12 1020
18.18 1013
18.24 1037
18.3 1021
18.36 1033
18.42 1011
18.48 1114
18.54 1054
18.6 1008
18.66 1096
18.72 1094
18.78 1107
18.84 1090
18.9 1060
18.96 1074
19.02 1104
19.08 1189
19.14 1129
19.2 1109
19.26 1179
19.32 1192
19.38 1205
19.44 1214
19.5 1273
19.56 1225
19.62 1158
19.68 1206
19.74 1310
19.8 1294
19.86 1327
19.92 1295
19.98 1310
20 1323

File: 9-10.ASC
3 2244
3.06 1949
3.12 1667
3.18 1628
3.24 1610
3.3 1560
3.36 1527
3.42 1540
3.48 1483
3.54 1442
3.6 1362
3.66 1281
3.72 1312
3.78 1261
3.84 1222
3.9 1316
3.96 1232
4.02 1222
4.08 1140
4.14 1147
4.2 1158
4.26 1163
4.32 1123
4.38 1132
4.44 1079
4.5 1090
4.56 1092
4.62 1097
4.68 1069
4.74 1082
4.8 1038
4.86 1067
4.92 1092
4.98 1066
5.04 1081
5.1 1007
5.16 1034
5.22 1040
5.28 1099
5.34 991
5.4 1011
5.46 1035
5.52 957
5.58 1030
5.64 1037
5.7 1027
5.76 1072
5.82 1116
5.88 1011
5.94 1019
6 1087
6.06 1024
6.12 1069
6.18 1002
6.24 1066
6.3 1019
6.36 1066
6.42 1050
6.48 1081
6.54 1043
6.6 1015
6.66 1056
6.72 1059
6.78 1042
6.84 1052
6.9 1056
6.96 1029
7.02 1054
7.08 1057
7.14 989
7.2 998
7.26 1051
7.32 1019
7.38 1052
7.44 998
7.5 1039
7.56 1059
7.62 1048
7.68 1054
7.74 1002
7.8 1036
7.86 1030
7.92 1036
7.98 978
8.04 1043
8.1 1019
8.16 1049
8.22 992
8.28 990
8.34 965
8.4 993
8.46 974
8.52 979
8.58 994
8.64 950
8.7 961
8.76 964
8.82 938
8.88 976
8.94 998
9 948
9.06 946
9.12 923
9.18 956
9.24 966
9.3 904
9.36 944
9.42 929
9.48 910
9.54 843
9.6 886
9.66 872
9.72 892
9.78 863
9.84 849
9.9 889
9.96 860
10.02 849
10.08 892
10.14 832
10.2 856
10.26 831
10.32 843
10.38 874
10.44 802
10.5 828
10.56 780
10.62 844
10.68 772
10.74 865
10.8 824
10.86 806
10.92 825
10.98 803
11.04 738
11.1 722
11.16 776
11.22 773
11.28 793
11.34 766
11.4 764
11.46 725
11.52 728
11.58 766
11.64 784
11.7 798
11.76 685
11.82 705
11.88 741
11.94 743
12 721
12.06 775
12.12 757
12.18 738
12.24 729
12.3 703
12.36 794
12.42 781
12.48 753
12.54 785
12.6 755
12.66 753
12.72 799
12.78 790
12.84 709
12.9 742
12.96 765
13.02 790
13.08 779
13.14 787
13.2 807
13.26 782
13.32 837
13.38 803
13.44 802
13.5 805
13.56 809
13.62 788
13.68 807
13.74 789
13.8 778
13.86 824
13.92 813
13.98 804
14.04 764
14.1 817
14.16 858
14.22 801
14.28 869
14.34 830
14.4 835
14.46 841
14.52 823
14.58 813
14.64 826
14.7 850
14.76 878
14.82 907
14.88 847
14.94 885
15 863
15.06 881
15.12 891
15.18 950
15.24 952
15.3 937
15.36 940
15.42 926
15.48 942
15.54 984
15.6 932
15.66 943
15.72 904
15.78 979
15.84 952
15.9 968
15.96 976
16.02 1022
16.08 1015
16.14 951
16.2 983
16.26 1074
16.32 1036
16.38 1065
16.44 1062
16.5 1063
16.56 1120
16.62 1212
16.68 1190
16.74 1337
16.8 1685
16.86 2322
16.92 2510
16.98 2791
17.04 2849
17.1 1535
17.16 1281
17.22 1286
17.28 1182
17.34 1175
17.4 1204
17.46 1282
17.52 1238
17.58 1173
17.64 1255
17.7 1263
17.76 1232
17.82 1373
17.88 1310
17.94 1280
18 1331
18.06 1323
18.12 1322
18.18 1325
18.24 1408
18.3 1369
18.36 1370
18.42 1349
18.48 1460
18.54 1406
18.6 1471
18.66 1365
18.72 1465
18.78 1474
18.84 1433
18.9 1442
18.96 1429
19.02 1579
19.08 1603
19.14 1509
19.2 1522
19.26 1486
19.32 1572
19.38 1520
19.44 1528
19.5 1538
19.56 1537
19.62 1542
19.68 1589
19.74 1537
19.8 1553
19.86 1601
19.92 1574
19.98 1579
20 1580