Folder: CPC-code/xrd-UiO-67/pxrddata (part 19)

File: 39-3.ASC
3 2796
3.06 2427
3.12 2219
3.18 2101
3.24 2015
3.3 2048
3.36 1935
3.42 1907
3.48 1826
3.54 1744
3.6 1788
3.66 1724
3.72 1704
3.78 1618
3.84 1704
3.9 1704
3.96 1659
4.02 1706
4.08 1795
4.14 1679
4.2 1610
4.26 1471
4.32 1419
4.38 1398
4.44 1394
4.5 1336
4.56 1326
4.62 1364
4.68 1353
4.74 1336
4.8 1361
4.86 1420
4.92 1423
4.98 1504
5.04 1508
5.1 1631
5.16 1834
5.22 2062
5.28 2377
5.34 2783
5.4 3418
5.46 4106
5.52 2664
5.58 2404
5.64 2425
5.7 2803
5.76 3388
5.82 3541
5.88 1972
5.94 1309
6 1110
6.06 1040
6.12 979
6.18 943
6.24 951
6.3 953
6.36 864
6.42 907
6.48 928
6.54 921
6.6 954
6.66 884
6.72 963
6.78 1004
6.84 927
6.9 882
6.96 803
7.02 790
7.08 756
7.14 740
7.2 659
7.26 735
7.32 704
7.38 692
7.44 718
7.5 731
7.56 687
7.62 702
7.68 653
7.74 700
7.8 716
7.86 671
7.92 695
7.98 669
8.04 724
8.1 691
8.16 671
8.22 703
8.28 670
8.34 638
8.4 646
8.46 689
8.52 665
8.58 631
8.64 603
8.7 611
8.76 640
8.82 656
8.88 661
8.94 669
9 690
9.06 752
9.12 815
9.18 896
9.24 992
9.3 1274
9.36 1789
9.42 1260
9.48 734
9.54 718
9.6 624
9.66 610
9.72 625
9.78 622
9.84 655
9.9 675
9.96 628
10.02 633
10.08 716
10.14 752
10.2 826
10.26 766
10.32 619
10.38 579
10.44 600
10.5 635
10.56 646
10.62 676
10.68 733
10.74 832
10.8 1008
10.86 905
10.92 959
10.98 1032
11.04 912
11.1 599
11.16 624
11.22 561
11.28 588
11.34 606
11.4 652
11.46 671
11.52 737
11.58 717
11.64 611
11.7 610
11.76 554
11.82 549
11.88 551
11.94 539
12 562
12.06 602
12.12 572
12.18 556
12.24 603
12.3 605
12.36 576
12.42 596
12.48 557
12.54 553
12.6 505
12.66 544
12.72 481
12.78 548
12.84 540
12.9 518
12.96 520
13.02 566
13.08 513
13.14 493
13.2 535
13.26 568
13.32 531
13.38 594
13.44 547
13.5 562
13.56 561
13.62 506
13.68 559
13.74 503
13.8 538
13.86 495
13.92 529
13.98 534
14.04 533
14.1 590
14.16 529
14.22 603
14.28 598
14.34 638
14.4 549
14.46 625
14.52 571
14.58 522
14.64 522
14.7 563
14.76 610
14.82 588
14.88 611
14.94 579
15 566
15.06 571
15.12 574
15.18 584
15.24 553
15.3 577
15.36 569
15.42 617
15.48 585
15.54 566
15.6 619
15.66 602
15.72 584
15.78 571
15.84 589
15.9 582
15.96 610
16.02 558
16.08 590
16.14 588
16.2 605
16.26 579
16.32 659
16.38 714
16.44 633
16.5 637
16.56 622
16.62 606
16.68 642
16.74 643
16.8 640
16.86 631
16.92 649
16.98 617
17.04 690
17.1 661
17.16 640
17.22 657
17.28 672
17.34 721
17.4 688
17.46 692
17.52 702
17.58 708
17.64 696
17.7 769
17.76 684
17.82 696
17.88 713
17.94 702
18 733
18.06 718
18.12 705
18.18 726
18.24 742
18.3 696
18.36 732
18.42 695
18.48 740
18.54 720
18.6 750
18.66 776
18.72 849
18.78 809
18.84 812
18.9 796
18.96 853
19.02 847
19.08 898
19.14 961
19.2 952
19.26 828
19.32 851
19.38 885
19.44 998
19.5 1046
19.56 1113
19.62 1083
19.68 806
19.74 873
19.8 858
19.86 929
19.92 956
19.98 872
20 873

File: 39-4.ASC
3 2659
3.06 2203
3.12 1988
3.18 1797
3.24 1729
3.3 1714
3.36 1720
3.42 1623
3.48 1628
3.54 1557
3.6 1490
3.66 1488
3.72 1491
3.78 1378
3.84 1383
3.9 1398
3.96 1218
4.02 1292
4.08 1241
4.14 1194
4.2 1176
4.26 1213
4.32 1131
4.38 1180
4.44 1107
4.5 1121
4.56 1071
4.62 1095
4.68 1118
4.74 1072
4.8 1149
4.86 1188
4.92 1227
4.98 1232
5.04 1292
5.1 1517
5.16 1589
5.22 1889
5.28 2218
5.34 2793
5.4 4168
5.46 2652
5.52 1810
5.58 1521
5.64 1310
5.7 1230
5.76 1178
5.82 1100
5.88 968
5.94 925
6 950
6.06 867
6.12 837
6.18 826
6.24 826
6.3 791
6.36 798
6.42 808
6.48 781
6.54 797
6.6 769
6.66 766
6.72 756
6.78 800
6.84 732
6.9 781
6.96 813
7.02 777
7.08 835
7.14 790
7.2 825
7.26 830
7.32 874
7.38 901
7.44 997
7.5 1057
7.56 1234
7.62 1201
7.68 1238
7.74 1379
7.8 1408
7.86 1311
7.92 1300
7.98 1256
8.04 1135
8.1 1057
8.16 997
8.22 960
8.28 876
8.34 891
8.4 866
8.46 808
8.52 752
8.58 834
8.64 827
8.7 811
8.76 813
8.82 898
8.88 947
8.94 982
9 1034
9.06 1021
9.12 1104
9.18 1103
9.24 1233
9.3 1447
9.36 1381
9.42 887
9.48 811
9.54 728
9.6 679
9.66 728
9.72 687
9.78 666
9.84 699
9.9 744
9.96 727
10.02 785
10.08 679
10.14 721
10.2 757
10.26 774
10.32 747
10.38 807
10.44 766
10.5 792
10.56 747
10.62 808
10.68 860
10.74 1058
10.8 1035
10.86 880
10.92 806
10.98 747
11.04 789
11.1 664
11.16 627
11.22 605
11.28 632
11.34 608
11.4 600
11.46 576
11.52 602
11.58 591
11.64 567
11.7 573
11.76 599
11.82 561
11.88 562
11.94 580
12 601
12.06 660
12.12 599
12.18 682
12.24 696
12.3 730
12.36 814
12.42 699
12.48 706
12.54 691
12.6 730
12.66 678
12.72 623
12.78 624
12.84 639
12.9 614
12.96 591
13.02 588
13.08 596
13.14 577
13.2 597
13.26 621
13.32 587
13.38 595
13.44 562
13.5 578
13.56 641
13.62 580
13.68 589
13.74 530
13.8 582
13.86 552
13.92 529
13.98 576
14.04 575
14.1 591
14.16 599
14.22 635
14.28 593
14.34 577
14.4 577
14.46 519
14.52 557
14.58 612
14.64 532
14.7 587
14.76 583
14.82 603
14.88 555
14.94 586
15 619
15.06 582
15.12 584
15.18 584
15.24 557
15.3 598
15.36 598
15.42 631
15.48 616
15.54 594
15.6 575
15.66 580
15.72 608
15.78 551
15.84 599
15.9 681
15.96 589
16.02 597
16.08 577
16.14 637
16.2 628
16.26 627
16.32 650
16.38 658
16.44 640
16.5 676
16.56 649
16.62 638
16.68 647
16.74 640
16.8 663
16.86 680
16.92 673
16.98 779
17.04 715
17.1 670
17.16 703
17.22 743
17.28 686
17.34 711
17.4 711
17.46 701
17.52 689
17.58 716
17.64 719
17.7 724
17.76 754
17.82 766
17.88 752
17.94 773
18 771
18.06 793
18.12 763
18.18 765
18.24 799
18.3 748
18.36 771
18.42 804
18.48 846
18.54 805
18.6 837
18.66 882
18.72 835
18.78 859
18.84 874
18.9 877
18.96 884
19.02 870
19.08 830
19.14 805
19.2 814
19.26 870
19.32 913
19.38 979
19.44 1068
19.5 1055
19.56 986
19.62 977
19.68 920
19.74 978
19.8 958
19.86 986
19.92 902
19.98 957
20 1002

File: 39-7.ASC
3 2707
3.06 2370
3.12 2106
3.18 1927
3.24 1944
3.3 1802
3.36 1824
3.42 1794
3.48 1684
3.54 1678
3.6 1643
3.66 1530
3.72 1525
3.78 1391
3.84 1403
3.9 1403
3.96 1384
4.02 1342
4.08 1355
4.14 1265
4.2 1356
4.26 1306
4.32 1210
4.38 1234
4.44 1243
4.5 1263
4.56 1230
4.62 1142
4.68 1153
4.74 1145
4.8 1139
4.86 1152
4.92 1130
4.98 1165
5.04 1102
5.1 1157
5.16 1136
5.22 1206
5.28 1192
5.34 1284
5.4 1429
5.46 1535
5.52 1228
5.58 1141
5.64 988
5.7 946
5.76 1007
5.82 922
5.88 924
5.94 909
6 889
6.06 863
6.12 820
6.18 858
6.24 805
6.3 860
6.36 848
6.42 847
6.48 865
6.54 809
6.6 754
6.66 790
6.72 748
6.78 778
6.84 725
6.9 732
6.96 712
7.02 710
7.08 734
7.14 804
7.2 735
7.26 706
7.32 714
7.38 705
7.44 713
7.5 740
7.56 728
7.62 689
7.68 729
7.74 726
7.8 666
7.86 695
7.92 722
7.98 678
8.04 693
8.1 699
8.16 656
8.22 669
8.28 610
8.34 656
8.4 615
8.46 700
8.52 678
8.58 606
8.64 626
8.7 674
8.76 687
8.82 602
8.88 664
8.94 623
9 659
9.06 623
9.12 653
9.18 631
9.24 664
9.3 753
9.36 814
9.42 708
9.48 623
9.54 651
9.6 586
9.66 567
9.72 582
9.78 602
9.84 611
9.9 517
9.96 567
10.02 579
10.08 560
10.14 556
10.2 567
10.26 555
10.32 553
10.38 556
10.44 606
10.5 552
10.56 543
10.62 552
10.68 602
10.74 646
10.8 682
10.86 675
10.92 647
10.98 579
11.04 630
11.1 539
11.16 575
11.22 580
11.28 574
11.34 522
11.4 552
11.46 570
11.52 555
11.58 583
11.64 557
11.7 589
11.76 558
11.82 567
11.88 556
11.94 533
12 546
12.06 543
12.12 562
12.18 549
12.24 552
12.3 615
12.36 565
12.42 580
12.48 601
12.54 510
12.6 545
12.66 603
12.72 586
12.78 579
12.84 573
12.9 595
12.96 551
13.02 562
13.08 554
13.14 583
13.2 564
13.26 591
13.32 574
13.38 589
13.44 600
13.5 591
13.56 535
13.62 569
13.68 604
13.74 596
13.8 596
13.86 586
13.92 590
13.98 603
14.04 576
14.1 586
14.16 600
14.22 594
14.28 647
14.34 633
14.4 570
14.46 595
14.52 626
14.58 575
14.64 613
14.7 636
14.76 601
14.82 592
14.88 618
14.94 663
15 626
15.06 658
15.12 628
15.18 653
15.24 585
15.3 652
15.36 667
15.42 613
15.48 720
15.54 668
15.6 695
15.66 669
15.72 641
15.78 672
15.84 702
15.9 749
15.96 666
16.02 722
16.08 691
16.14 703
16.2 712
16.26 688
16.32 759
16.38 730
16.44 716
16.5 687
16.56 762
16.62 747
16.68 720
16.74 784
16.8 761
16.86 752
16.92 801
16.98 781
17.04 807
17.1 817
17.16 774
17.22 772
17.28 807
17.34 789
17.4 826
17.46 826
17.52 819
17.58 840
17.64 808
17.7 794
17.76 863
17.82 882
17.88 839
17.94 822
18 818
18.06 886
18.12 872
18.18 933
18.24 900
18.3 914
18.36 871
18.42 924
18.48 910
18.54 919
18.6 919
18.66 940
18.72 973
18.78 998
18.84 957
18.9 974
18.96 991
19.02 1009
19.08 1006
19.14 988
19.2 1000
19.26 993
19.32 1012
19.38 1062
19.44 996
19.5 1070
19.56 1111
19.62 1038
19.68 1054
19.74 1061
19.8 1129
19.86 1054
19.92 1045
19.98 1147
20 1088

File: 39-8.ASC
3 2455
3.06 2092
3.12 1762
3.18 1797
3.24 1698
3.3 1581
3.36 1605
3.42 1562
3.48 1467
3.54 1432
3.6 1343
3.66 1428
3.72 1353
3.78 1295
3.84 1296
3.9 1286
3.96 1199
4.02 1242
4.08 1134
4.14 1158
4.2 1140
4.26 1166
4.32 1091
4.38 1117
4.44 1091
4.5 1063
4.56 1057
4.62 1047
4.68 1109
4.74 1089
4.8 1041
4.86 1070
4.92 1144
4.98 1167
5.04 1125
5.1 1223
5.16 1328
5.22 1459
5.28 1704
5.34 2003
5.4 2697
5.46 2609
5.52 1685
5.58 1498
5.64 1475
5.7 1484
5.76 1424
5.82 1264
5.88 1071
5.94 990
6 922
6.06 825
6.12 820
6.18 855
6.24 856
6.3 826
6.36 799
6.42 777
6.48 776
6.54 792
6.6 800
6.66 797
6.72 780
6.78 830
6.84 725
6.9 784
6.96 742
7.02 741
7.08 743
7.14 760
7.2 732
7.26 710
7.32 695
7.38 677
7.44 704
7.5 656
7.56 714
7.62 722
7.68 662
7.74 715
7.8 671
7.86 697
7.92 748
7.98 695
8.04 702
8.1 722
8.16 680
8.22 685
8.28 674
8.34 674
8.4 678
8.46 665
8.52 692
8.58 635
8.64 675
8.7 657
8.76 670
8.82 669
8.88 634
8.94 659
9 632
9.06 752
9.12 731
9.18 783
9.24 913
9.3 1123
9.36 1473
9.42 815
9.48 683
9.54 690
9.6 644
9.66 639
9.72 611
9.78 649
9.84 634
9.9 653
9.96 653
10.02 647
10.08 676
10.14 618
10.2 647
10.26 636
10.32 624
10.38 612
10.44 598
10.5 711
10.56 653
10.62 682
10.68 774
10.74 867
10.8 990
10.86 780
10.92 777
10.98 735
11.04 642
11.1 616
11.16 594
11.22 581
11.28 582
11.34 641
11.4 587
11.46 593
11.52 618
11.58 597
11.64 573
11.7 609
11.76 580
11.82 570
11.88 560
11.94 627
12 582
12.06 569
12.12 646
12.18 590
12.24 608
12.3 660
12.36 607
12.42 580
12.48 576
12.54 583
12.6 612
12.66 601
12.72 629
12.78 609
12.84 552
12.9 625
12.96 605
13.02 604
13.08 608
13.14 631
13.2 606
13.26 615
13.32 644
13.38 655
13.44 626
13.5 578
13.56 660
13.62 597
13.68 644
13.74 626
13.8 603
13.86 638
13.92 590
13.98 581
14.04 688
14.1 638
14.16 625
14.22 647
14.28 690
14.34 700
14.4 663
14.46 699
14.52 645
14.58 633
14.64 671
14.7 687
14.76 695
14.82 648
14.88 731
14.94 666
15 716
15.06 672
15.12 654
15.18 651
15.24 705
15.3 688
15.36 703
15.42 701
15.48 722
15.54 725
15.6 680
15.66 729
15.72 713
15.78 726
15.84 746
15.9 739
15.96 695
16.02 697
16.08 750
16.14 760
16.2 794
16.26 753
16.32 771
16.38 757
16.44 788
16.5 768
16.56 753
16.62 795
16.68 773
16.74 782
16.8 816
16.86 816
16.92 844
16.98 773
17.04 834
17.1 834
17.16 857
17.22 821
17.28 881
17.34 847
17.4 875
17.46 794
17.52 893
17.58 892
17.64 854
17.7 921
17.76 916
17.82 869
17.88 883
17.94 900
18 928
18.06 876
18.12 921
18.18 931
18.24 924
18.3 959
18.36 969
18.42 933
18.48 989
18.54 994
18.6 974
18.66 982
18.72 1102
18.78 1056
18.84 1016
18.9 1029
18.96 1037
19.02 1066
19.08 1057
19.14 1120
19.2 1045
19.26 1055
19.32 1125
19.38 1160
19.44 1218
19.5 1165
19.56 1198
19.62 1099
19.68 1115
19.74 1155
19.8 1095
19.86 1150
19.92 1128
19.98 1118
20 1157

File: 39-9.ASC
3 3169
3.06 2576
3.12 2366
3.18 2295
3.24 2183
3.3 2105
3.36 2116
3.42 1992
3.48 1911
3.54 1864
3.6 1791
3.66 1819
3.72 1720
3.78 1692
3.84 1588
3.9 1649
3.96 1533
4.02 1502
4.08 1511
4.14 1438
4.2 1395
4.26 1376
4.32 1321
4.38 1316
4.44 1325
4.5 1310
4.56 1286
4.62 1278
4.68 1262
4.74 1328
4.8 1353
4.86 1388
4.92 1401
4.98 1463
5.04 1571
5.1 1703
5.16 1893
5.22 2172
5.28 2570
5.34 3381
5.4 5192
5.46 3115
5.52 1988
5.58 1615
5.64 1448
5.7 1289
5.76 1178
5.82 1110
5.88 1112
5.94 983
6 972
6.06 900
6.12 939
6.18 860
6.24 921
6.3 884
6.36 887
6.42 887
6.48 810
6.54 799
6.6 816
6.66 864
6.72 847
6.78 846
6.84 808
6.9 796
6.96 854
7.02 811
7.08 811
7.14 849
7.2 871
7.26 862
7.32 887
7.38 887
7.44 964
7.5 968
7.56 1070
7.62 1100
7.68 1150
7.74 1175
7.8 1230
7.86 1194
7.92 1275
7.98 1234
8.04 1160
8.1 1065
8.16 1026
8.22 1032
8.28 944
8.34 918
8.4 882
8.46 916
8.52 896
8.58 888
8.64 873
8.7 889
8.76 985
8.82 1047
8.88 1242
8.94 1451
9 1451
9.06 1313
9.12 1268
9.18 1264
9.24 1286
9.3 1663
9.36 1711
9.42 1049
9.48 937
9.54 853
9.6 791
9.66 778
9.72 835
9.78 761
9.84 816
9.9 847
9.96 913
10.02 829
10.08 840
10.14 788
10.2 781
10.26 792
10.32 814
10.38 823
10.44 831
10.5 820
10.56 824
10.62 882
10.68 918
10.74 1155
10.8 1200
10.86 978
10.92 825
10.98 800
11.04 726
11.1 691
11.16 696
11.22 653
11.28 644
11.34 600
11.4 614
11.46 656
11.52 601
11.58 572
11.64 591
11.7 644
11.76 623
11.82 606
11.88 595
11.94 631
12 633
12.06 582
12.12 652
12.18 761
12.24 847
12.3 889
12.36 841
12.42 821
12.48 695
12.54 781
12.6 841
12.66 740
12.72 651
12.78 649
12.84 644
12.9 674
12.96 620
13.02 667
13.08 640
13.14 659
13.2 620
13.26 681
13.32 639
13.38 692
13.44 656
13.5 649
13.56 630
13.62 645
13.68 619
13.74 584
13.8 659
13.86 603
13.92 624
13.98 578
14.04 602
14.1 634
14.16 679
14.22 653
14.28 681
14.34 656
14.4 627
14.46 656
14.52 584
14.58 618
14.64 626
14.7 614
14.76 664
14.82 626
14.88 562
14.94 606
15 648
15.06 618
15.12 619
15.18 615
15.24 621
15.3 625
15.36 592
15.42 613
15.48 628
15.54 620
15.6 652
15.66 663
15.72 670
15.78 666
15.84 652
15.9 684
15.96 641
16.02 630
16.08 703
16.14 666
16.2 670
16.26 629
16.32 694
16.38 655
16.44 718
16.5 718
16.56 725
16.62 730
16.68 720
16.74 698
16.8 700
16.86 705
16.92 760
16.98 762
17.04 782
17.1 748
17.16 790
17.22 762
17.28 772
17.34 786
17.4 794
17.46 788
17.52 780
17.58 826
17.64 753
17.7 750
17.76 816
17.82 844
17.88 795
17.94 809
18 818
18.06 816
18.12 809
18.18 869
18.24 885
18.3 888
18.36 864
18.42 868
18.48 919
18.54 912
18.6 874
18.66 980
18.72 915
18.78 954
18.84 923
18.9 942
18.96 938
19.02 961
19.08 946
19.14 1008
19.2 987
19.26 1007
19.32 983
19.38 1033
19.44 1158
19.5 1177
19.56 1082
19.62 1108
19.68 1029
19.74 1020
19.8 1049
19.86 1015
19.92 1082
19.98 1091
20 1091

File: 39-10.ASC
3 2687
3.06 2156
3.12 1875
3.18 1849
3.24 1682
3.3 1621
3.36 1659
3.42 1604
3.48 1526
3.54 1494
3.6 1384
3.66 1300
3.72 1394
3.78 1330
3.84 1280
3.9 1213
3.96 1241
4.02 1241
4.08 1178
4.14 1167
4.2 1088
4.26 1075
4.32 1213
4.38 1098
4.44 1169
4.5 1158
4.56 1106
4.62 1128
4.68 1203
4.74 1231
4.8 1285
4.86 1345
4.92 1422
4.98 1646
5.04 1769
5.1 2054
5.16 2409
5.22 3130
5.28 3702
5.34 5198
5.4 8171
5.46 5325
5.52 2834
5.58 2187
5.64 1792
5.7 1591
5.76 1409
5.82 1252
5.88 1219
5.94 1058
6 949
6.06 920
6.12 917
6.18 851
6.24 838
6.3 812
6.36 827
6.42 807
6.48 793
6.54 771
6.6 788
6.66 771
6.72 760
6.78 731
6.84 660
6.9 706
6.96 741
7.02 754
7.08 727
7.14 707
7.2 713
7.26 682
7.32 707
7.38 648
7.44 633
7.5 639
7.56 656
7.62 667
7.68 666
7.74 678
7.8 691
7.86 693
7.92 656
7.98 685
8.04 677
8.1 696
8.16 678
8.22 683
8.28 651
8.34 652
8.4 647
8.46 658
8.52 649
8.58 662
8.64 689
8.7 666
8.76 670
8.82 616
8.88 664
8.94 721
9 776
9.06 817
9.12 949
9.18 1051
9.24 1395
9.3 2056
9.36 2340
9.42 1053
9.48 842
9.54 768
9.6 725
9.66 699
9.72 662
9.78 679
9.84 669
9.9 619
9.96 669
10.02 629
10.08 689
10.14 645
10.2 664
10.26 660
10.32 652
10.38 671
10.44 746
10.5 718
10.56 784
10.62 859
10.68 1057
10.74 1378
10.8 1578
10.86 989
10.92 875
10.98 830
11.04 725
11.1 687
11.16 635
11.22 588
11.28 670
11.34 643
11.4 598
11.46 584
11.52 624
11.58 631
11.64 615
11.7 626
11.76 602
11.82 609
11.88 609
11.94 601
12 629
12.06 619
12.12 647
12.18 746
12.24 778
12.3 789
12.36 706
12.42 647
12.48 625
12.54 659
12.6 605
12.66 648
12.72 637
12.78 610
12.84 649
12.9 625
12.96 655
13.02 667
13.08 638
13.14 605
13.2 671
13.26 682
13.32 601
13.38 665
13.44 670
13.5 653
13.56 657
13.62 640
13.68 639
13.74 678
13.8 638
13.86 678
13.92 648
13.98 648
14.04 642
14.1 631
14.16 676
14.22 727
14.28 720
14.34 738
14.4 738
14.46 721
14.52 661
14.58 685
14.64 667
14.7 703
14.76 660
14.82 688
14.88 682
14.94 662
15 694
15.06 694
15.12 707
15.18 669
15.24 724
15.3 693
15.36 688
15.42 714
15.48 711
15.54 753
15.6 717
15.66 700
15.72 717
15.78 713
15.84 700
15.9 742
15.96 741
16.02 764
16.08 749
16.14 813
16.2 748
16.26 770
16.32 796
16.38 818
16.44 765
16.5 779
16.56 783
16.62 787
16.68 794
16.74 796
16.8 819
16.86 827
16.92 867
16.98 872
17.04 842
17.1 875
17.16 856
17.22 939
17.28 847
17.34 951
17.4 881
17.46 922
17.52 926
17.58 891
17.64 884
17.7 874
17.76 937
17.82 931
17.88 902
17.94 919
18 979
18.06 885
18.12 955
18.18 912
18.24 902
18.3 923
18.36 967
18.42 997
18.48 986
18.54 949
18.6 1057
18.66 1074
18.72 1090
18.78 1009
18.84 1000
18.9 992
18.96 1045
19.02 1124
19.08 1079
19.14 1090
19.2 1047
19.26 1102
19.32 1152
19.38 1254
19.44 1478
19.5 1392
19.56 1269
19.62 1219
19.68 1132
19.74 1129
19.8 1209
19.86 1190
19.92 1142
19.98 1166
20 1154

File: 39-11.ASC
3 3102
3.06 2691
3.12 2414
3.18 2308
3.24 2175
3.3 2082
3.36 2020
3.42 1952
3.48 1805
3.54 1795
3.6 1720
3.66 1756
3.72 1645
3.78 1610
3.84 1584
3.9 1549
3.96 1417
4.02 1257
4.08 1292
4.14 1310
4.2 1241
4.26 1172
4.32 1248
4.38 1112
4.44 1155
4.5 1122
4.56 1112
4.62 1111
4.68 1075
4.74 1037
4.8 986
4.86 1006
4.92 951
4.98 918
5.04 900
5.1 887
5.16 849
5.22 860
5.28 875
5.34 866
5.4 893
5.46 797
5.52 790
5.58 818
5.64 813
5.7 826
5.76 778
5.82 773
5.88 806
5.94 753
6 741
6.06 797
6.12 793
6.18 730
6.24 750
6.3 832
6.36 754
6.42 705
6.48 756
6.54 756
6.6 813
6.66 733
6.72 772
6.78 779
6.84 706
6.9 775
6.96 801
7.02 812
7.08 784
7.14 785
7.2 814
7.26 809
7.32 846
7.38 861
7.44 894
7.5 858
7.56 996
7.62 969
7.68 998
7.74 983
7.8 1003
7.86 1069
7.92 1054
7.98 1052
8.04 1091
8.1 1052
8.16 1050
8.22 1006
8.28 1093
8.34 1067
8.4 1059
8.46 1136
8.52 1124
8.58 1246
8.64 1317
8.7 1419
8.76 1522
8.82 1784
8.88 1984
8.94 2170
9 2215
9.06 1986
9.12 1795
9.18 1625
9.24 1417
9.3 1351
9.36 1228
9.42 1181
9.48 1052
9.54 1046
9.6 977
9.66 991
9.72 1094
9.78 1123
9.84 1213
9.9 1362
9.96 1426
10.02 1305
10.08 1201
10.14 1007
10.2 903
10.26 970
10.32 865
10.38 852
10.44 843
10.5 762
10.56 739
10.62 724
10.68 719
10.74 700
10.8 685
10.86 702
10.92 651
10.98 667
11.04 682
11.1 627
11.16 598
11.22 626
11.28 558
11.34 587
11.4 572
11.46 517
11.52 559
11.58 538
11.64 573
11.7 553
11.76 559
11.82 502
11.88 491
11.94 542
12 547
12.06 535
12.12 529
12.18 507
12.24 541
12.3 563
12.36 551
12.42 604
12.48 641
12.54 739
12.6 874
12.66 812
12.72 741
12.78 662
12.84 592
12.9 569
12.96 568
13.02 582
13.08 570
13.14 546
13.2 531
13.26 562
13.32 564
13.38 536
13.44 565
13.5 512
13.56 527
13.62 531
13.68 522
13.74 517
13.8 502
13.86 531
13.92 546
13.98 493
14.04 529
14.1 548
14.16 515
14.22 555
14.28 556
14.34 521
14.4 519
14.46 545
14.52 564
14.58 533
14.64 541
14.7 545
14.76 541
14.82 547
14.88 550
14.94 545
15 556
15.06 589
15.12 560
15.18 575
15.24 591
15.3 563
15.36 595
15.42 563
15.48 564
15.54 561
15.6 555
15.66 532
15.72 607
15.78 596
15.84 557
15.9 579
15.96 575
16.02 627
16.08 588
16.14 515
16.2 569
16.26 619
16.32 589
16.38 616
16.44 631
16.5 626
16.56 653
16.62 624
16.68 595
16.74 618
16.8 676
16.86 742
16.92 911
16.98 1149
17.04 1001
17.1 654
17.16 664
17.22 629
17.28 660
17.34 666
17.4 677
17.46 671
17.52 640
17.58 643
17.64 695
17.7 656
17.76 765
17.82 749
17.88 713
17.94 748
18 731
18.06 768
18.12 731
18.18 763
18.24 737
18.3 774
18.36 779
18.42 793
18.48 788
18.54 855
18.6 771
18.66 816
18.72 870
18.78 792
18.84 812
18.9 820
18.96 800
19.02 809
19.08 848
19.14 822
19.2 826
19.26 837
19.32 829
19.38 827
19.44 832
19.5 896
19.56 918
19.62 892
19.68 929
19.74 890
19.8 915
19.86 974
19.92 978
19.98 1019
20 1007

File: 39-12.ASC
3 2816
3.06 2289
3.12 2152
3.18 2053
3.24 1900
3.3 1912
3.36 1865
3.42 1845
3.48 1805
3.54 1705
3.6 1719
3.66 1666
3.72 1631
3.78 1643
3.84 1654
3.9 1705
3.96 1702
4.02 1706
4.08 1692
4.14 1724
4.2 1574
4.26 1468
4.32 1490
4.38 1438
4.44 1359
4.5 1421
4.56 1381
4.62 1393
4.68 1431
4.74 1366
4.8 1416
4.86 1378
4.92 1406
4.98 1439
5.04 1487
5.1 1443
5.16 1574
5.22 1628
5.28 1789
5.34 2064
5.4 2384
5.46 1820
5.52 1654
5.58 1657
5.64 1732
5.7 2055
5.76 2282
5.82 1595
5.88 1183
5.94 1154
6 1073
6.06 1034
6.12 1024
6.18 1039
6.24 897
6.3 935
6.36 961
6.42 951
6.48 941
6.54 948
6.6 1022
6.66 1014
6.72 1055
6.78 954
6.84 891
6.9 932
6.96 890
7.02 844
7.08 835
7.14 896
7.2 800
7.26 825
7.32 791
7.38 807
7.44 812
7.5 751
7.56 785
7.62 838
7.68 806
7.74 819
7.8 746
7.86 819
7.92 743
7.98 796
8.04 788
8.1 730
8.16 784
8.22 707
8.28 737
8.34 676
8.4 725
8.46 686
8.52 675
8.58 712
8.64 680
8.7 678
8.76 701
8.82 700
8.88 714
8.94 703
9 650
9.06 728
9.12 753
9.18 820
9.24 915
9.3 1124
9.36 866
9.42 692
9.48 684
9.54 656
9.6 592
9.66 622
9.72 664
9.78 677
9.84 640
9.9 633
9.96 589
10.02 656
10.08 626
10.14 689
10.2 676
10.26 604
10.32 635
10.38 611
10.44 634
10.5 631
10.56 600
10.62 633
10.68 703
10.74 761
10.8 753
10.86 701
10.92 779
10.98 770
11.04 611
11.1 620
11.16 555
11.22 609
11.28 529
11.34 582
11.4 564
11.46 626
11.52 632
11.58 638
11.64 556
11.7 552
11.76 568
11.82 557
11.88 557
11.94 520
12 575
12.06 561
12.12 589
12.18 616
12.24 633
12.3 579
12.36 568
12.42 576
12.48 571
12.54 542
12.6 567
12.66 540
12.72 569
12.78 528
12.84 526
12.9 583
12.96 546
13.02 546
13.08 527
13.14 539
13.2 529
13.26 589
13.32 581
13.38 546
13.44 543
13.5 561
13.56 546
13.62 520
13.68 581
13.74 544
13.8 573
13.86 545
13.92 573
13.98 575
14.04 592
14.1 604
14.16 569
14.22 618
14.28 594
14.34 582
14.4 608
14.46 544
14.52 558
14.58 615
14.64 600
14.7 616
14.76 608
14.82 633
14.88 656
14.94 592
15 618
15.06 592
15.12 570
15.18 581
15.24 622
15.3 620
15.36 607
15.42 571
15.48 608
15.54 601
15.6 607
15.66 585
15.72 568
15.78 585
15.84 606
15.9 634
15.96 642
16.02 610
16.08 667
16.14 611
16.2 626
16.26 615
16.32 634
16.38 622
16.44 632
16.5 623
16.56 599
16.62 632
16.68 697
16.74 686
16.8 613
16.86 627
16.92 663
16.98 649
17.04 625
17.1 668
17.16 714
17.22 675
17.28 697
17.34 664
17.4 696
17.46 698
17.52 778
17.58 684
17.64 659
17.7 700
17.76 741
17.82 695
17.88 713
17.94 698
18 747
18.06 674
18.12 722
18.18 753
18.24 740
18.3 769
18.36 699
18.42 743
18.48 735
18.54 785
18.6 750
18.66 751
18.72 832
18.78 758
18.84 794
18.9 765
18.96 818
19.02 839
19.08 870
19.14 822
19.2 839
19.26 756
19.32 858
19.38 871
19.44 886
19.5 947
19.56 940
19.62 840
19.68 799
19.74 819
19.8 894
19.86 906
19.92 883
19.98 883
20 880

File: 39-16.ASC
3 2651
3.06 2285
3.12 1973
3.18 1937
3.24 1809
3.3 1776
3.36 1734
3.42 1694
3.48 1578
3.54 1508
3.6 1477
3.66 1392
3.72 1371
3.78 1322
3.84 1251
3.9 1331
3.96 1365
4.02 1301
4.08 1242
4.14 1196
4.2 1215
4.26 1140
4.32 1167
4.38 1141
4.44 1139
4.5 1055
4.56 1112
4.62 1098
4.68 1154
4.74 1126
4.8 1156
4.86 1134
4.92 1208
4.98 1198
5.04 1341
5.1 1353
5.16 1536
5.22 1702
5.28 2019
5.34 2511
5.4 3722
5.46 2523
5.52 1710
5.58 1420
5.64 1251
5.7 1187
5.76 1131
5.82 973
5.88 903
5.94 956
6 850
6.06 885
6.12 874
6.18 863
6.24 827
6.3 826
6.36 804
6.42 818
6.48 788
6.54 777
6.6 784
6.66 754
6.72 788
6.78 748
6.84 709
6.9 739
6.96 753
7.02 745
7.08 699
7.14 734
7.2 673
7.26 723
7.32 694
7.38 693
7.44 713
7.5 727
7.56 724
7.62 705
7.68 664
7.74 723
7.8 699
7.86 662
7.92 723
7.98 666
8.04 676
8.1 654
8.16 690
8.22 688
8.28 636
8.34 659
8.4 656
8.46 672
8.52 635
8.58 630
8.64 625
8.7 618
8.76 635
8.82 656
8.88 662
8.94 679
9 670
9.06 758
9.12 803
9.18 829
9.24 921
9.3 1241
9.36 1300
9.42 826
9.48 689
9.54 688
9.6 644
9.66 644
9.72 648
9.78 619
9.84 666
9.9 601
9.96 644
10.02 592
10.08 622
10.14 643
10.2 670
10.26 630
10.32 581
10.38 655
10.44 576
10.5 629
10.56 651
10.62 665
10.68 776
10.74 855
10.8 898
10.86 720
10.92 683
10.98 625
11.04 631
11.1 563
11.16 606
11.22 578
11.28 587
11.34 599
11.4 633
11.46 636
11.52 620
11.58 582
11.64 593
11.7 583
11.76 557
11.82 612
11.88 551
11.94 587
12 630
12.06 613
12.12 570
12.18 636
12.24 721
12.3 716
12.36 630
12.42 599
12.48 613
12.54 562
12.6 586
12.66 591
12.72 596
12.78 617
12.84 595
12.9 562
12.96 575
13.02 607
13.08 595
13.14 606
13.2 606
13.26 642
13.32 611
13.38 608
13.44 612
13.5 610
13.56 585
13.62 582
13.68 635
13.74 586
13.8 601
13.86 621
13.92 637
13.98 623
14.04 607
14.1 604
14.16 616
14.22 696
14.28 608
14.34 654
14.4 596
14.46 626
14.52 618
14.58 570
14.64 615
14.7 664
14.76 643
14.82 670
14.88 642
14.94 642
15 613
15.06 613
15.12 651
15.18 628
15.24 628
15.3 667
15.36 674
15.42 662
15.48 619
15.54 697
15.6 658
15.66 681
15.72 710
15.78 686
15.84 695
15.9 674
15.96 695
16.02 719
16.08 696
16.14 680
16.2 722
16.26 724
16.32 720
16.38 730
16.44 785
16.5 827
16.56 783
16.62 781
16.68 784
16.74 781
16.8 888
16.86 952
16.92 1148
16.98 1508
17.04 1239
17.1 921
17.16 856
17.22 823
17.28 799
17.34 850
17.4 851
17.46 877
17.52 869
17.58 826
17.64 875
17.7 891
17.76 842
17.82 903
17.88 825
17.94 894
18 864
18.06 855
18.12 863
18.18 876
18.24 871
18.3 962
18.36 901
18.42 910
18.48 920
18.54 930
18.6 924
18.66 964
18.72 934
18.78 1017
18.84 986
18.9 1010
18.96 981
19.02 1030
19.08 1021
19.14 986
19.2 987
19.26 1031
19.32 1100
19.38 1179
19.44 1150
19.5 1158
19.56 1144
19.62 1113
19.68 1083
19.74 1082
19.8 1087
19.86 1146
19.92 1077
19.98 1059
20 1096