Folder: CPC-code/xrd-UiO-67/pxrddata (part 18)

File: 38-28.ASC
3 3148
3.06 2638
3.12 2457
3.18 2444
3.24 2434
3.3 2185
3.36 2189
3.42 1951
3.48 1903
3.54 1849
3.6 1756
3.66 1657
3.72 1686
3.78 1585
3.84 1540
3.9 1546
3.96 1381
4.02 1450
4.08 1349
4.14 1318
4.2 1232
4.26 1248
4.32 1201
4.38 1197
4.44 1190
4.5 1089
4.56 1081
4.62 1083
4.68 1079
4.74 1060
4.8 1057
4.86 981
4.92 1003
4.98 965
5.04 997
5.1 944
5.16 1005
5.22 1066
5.28 1029
5.34 1104
5.4 1306
5.46 1280
5.52 1033
5.58 1010
5.64 967
5.7 923
5.76 880
5.82 910
5.88 857
5.94 870
6 809
6.06 788
6.12 788
6.18 784
6.24 799
6.3 788
6.36 725
6.42 784
6.48 784
6.54 807
6.6 757
6.66 776
6.72 750
6.78 795
6.84 750
6.9 712
6.96 728
7.02 766
7.08 762
7.14 760
7.2 778
7.26 683
7.32 764
7.38 708
7.44 725
7.5 773
7.56 755
7.62 752
7.68 703
7.74 737
7.8 745
7.86 751
7.92 777
7.98 716
8.04 751
8.1 748
8.16 740
8.22 753
8.28 800
8.34 730
8.4 782
8.46 734
8.52 767
8.58 733
8.64 760
8.7 724
8.76 749
8.82 781
8.88 712
8.94 767
9 771
9.06 780
9.12 801
9.18 793
9.24 812
9.3 853
9.36 937
9.42 803
9.48 743
9.54 724
9.6 799
9.66 766
9.72 766
9.78 774
9.84 752
9.9 765
9.96 765
10.02 807
10.08 757
10.14 742
10.2 758
10.26 788
10.32 761
10.38 796
10.44 770
10.5 742
10.56 818
10.62 778
10.68 834
10.74 837
10.8 864
10.86 797
10.92 788
10.98 776
11.04 844
11.1 841
11.16 770
11.22 840
11.28 807
11.34 781
11.4 814
11.46 814
11.52 825
11.58 845
11.64 839
11.7 861
11.76 804
11.82 875
11.88 872
11.94 790
12 866
12.06 846
12.12 831
12.18 898
12.24 872
12.3 889
12.36 836
12.42 898
12.48 905
12.54 885
12.6 932
12.66 955
12.72 924
12.78 913
12.84 949
12.9 863
12.96 898
13.02 917
13.08 956
13.14 972
13.2 947
13.26 976
13.32 1006
13.38 981
13.44 984
13.5 982
13.56 950
13.62 949
13.68 1009
13.74 1000
13.8 1004
13.86 1014
13.92 973
13.98 1035
14.04 1019
14.1 1027
14.16 1042
14.22 1109
14.28 1128
14.34 1089
14.4 1149
14.46 1106
14.52 1151
14.58 1104
14.64 1131
14.7 1207
14.76 1140
14.82 1164
14.88 1130
14.94 1193
15 1233
15.06 1227
15.12 1200
15.18 1269
15.24 1257
15.3 1267
15.36 1189
15.42 1267
15.48 1292
15.54 1284
15.6 1294
15.66 1353
15.72 1322
15.78 1341
15.84 1387
15.9 1354
15.96 1367
16.02 1371
16.08 1358
16.14 1425
16.2 1499
16.26 1480
16.32 1438
16.38 1511
16.44 1468
16.5 1525
16.56 1550
16.62 1528
16.68 1531
16.74 1630
16.8 1673
16.86 1806
16.92 2119
16.98 2389
17.04 2418
17.1 1909
17.16 1740
17.22 1750
17.28 1706
17.34 1750
17.4 1805
17.46 1715
17.52 1777
17.58 1821
17.64 1842
17.7 1817
17.76 1839
17.82 1866
17.88 1956
17.94 1836
18 1962
18.06 1917
18.12 1986
18.18 1983
18.24 2017
18.3 2017
18.36 2005
18.42 1972
18.48 2062
18.54 2088
18.6 2161
18.66 2063
18.72 2148
18.78 2133
18.84 2134
18.9 2122
18.96 2183
19.02 2257
19.08 2240
19.14 2329
19.2 2220
19.26 2247
19.32 2305
19.38 2375
19.44 2316
19.5 2351
19.56 2370
19.62 2405
19.68 2391
19.74 2345
19.8 2442
19.86 2410
19.92 2394
19.98 2421
20 2407

File: 38-30.ASC
3 2813
3.06 2451
3.12 2248
3.18 2169
3.24 2039
3.3 2013
3.36 1934
3.42 1932
3.48 1865
3.54 1845
3.6 1830
3.66 1771
3.72 1709
3.78 1736
3.84 1650
3.9 1614
3.96 1548
4.02 1594
4.08 1520
4.14 1545
4.2 1433
4.26 1473
4.32 1485
4.38 1455
4.44 1368
4.5 1377
4.56 1315
4.62 1386
4.68 1320
4.74 1306
4.8 1328
4.86 1297
4.92 1318
4.98 1250
5.04 1333
5.1 1344
5.16 1342
5.22 1380
5.28 1448
5.34 1514
5.4 1765
5.46 1560
5.52 1308
5.58 1271
5.64 1204
5.7 1096
5.76 1145
5.82 1012
5.88 1081
5.94 1012
6 999
6.06 1025
6.12 1000
6.18 931
6.24 922
6.3 966
6.36 974
6.42 944
6.48 909
6.54 884
6.6 844
6.66 858
6.72 909
6.78 883
6.84 836
6.9 920
6.96 760
7.02 862
7.08 816
7.14 846
7.2 838
7.26 818
7.32 848
7.38 812
7.44 820
7.5 805
7.56 776
7.62 813
7.68 823
7.74 783
7.8 790
7.86 822
7.92 770
7.98 762
8.04 748
8.1 775
8.16 739
8.22 769
8.28 749
8.34 752
8.4 733
8.46 712
8.52 773
8.58 735
8.64 745
8.7 771
8.76 735
8.82 700
8.88 710
8.94 728
9 779
9.06 751
9.12 732
9.18 770
9.24 739
9.3 823
9.36 871
9.42 730
9.48 708
9.54 711
9.6 675
9.66 696
9.72 694
9.78 694
9.84 714
9.9 631
9.96 700
10.02 721
10.08 661
10.14 673
10.2 695
10.26 682
10.32 668
10.38 640
10.44 651
10.5 681
10.56 674
10.62 706
10.68 707
10.74 767
10.8 743
10.86 720
10.92 700
10.98 716
11.04 683
11.1 676
11.16 670
11.22 715
11.28 670
11.34 681
11.4 683
11.46 702
11.52 713
11.58 653
11.64 692
11.7 732
11.76 686
11.82 674
11.88 699
11.94 699
12 736
12.06 694
12.12 719
12.18 656
12.24 701
12.3 713
12.36 713
12.42 690
12.48 689
12.54 717
12.6 716
12.66 751
12.72 748
12.78 720
12.84 706
12.9 665
12.96 676
13.02 759
13.08 745
13.14 744
13.2 727
13.26 757
13.32 732
13.38 741
13.44 732
13.5 774
13.56 738
13.62 765
13.68 714
13.74 753
13.8 734
13.86 729
13.92 777
13.98 777
14.04 774
14.1 783
14.16 782
14.22 841
14.28 777
14.34 762
14.4 822
14.46 847
14.52 848
14.58 806
14.64 816
14.7 844
14.76 810
14.82 782
14.88 841
14.94 894
15 825
15.06 819
15.12 866
15.18 851
15.24 911
15.3 866
15.36 846
15.42 903
15.48 966
15.54 927
15.6 902
15.66 1001
15.72 942
15.78 927
15.84 921
15.9 1000
15.96 967
16.02 929
16.08 1000
16.14 1001
16.2 998
16.26 931
16.32 1035
16.38 1024
16.44 1004
16.5 1075
16.56 1076
16.62 1136
16.68 1161
16.74 1247
16.8 1335
16.86 1523
16.92 2088
16.98 2801
17.04 2380
17.1 1511
17.16 1173
17.22 1178
17.28 1182
17.34 1179
17.4 1147
17.46 1267
17.52 1151
17.58 1158
17.64 1197
17.7 1259
17.76 1192
17.82 1245
17.88 1257
17.94 1278
18 1284
18.06 1307
18.12 1337
18.18 1290
18.24 1304
18.3 1313
18.36 1368
18.42 1338
18.48 1354
18.54 1410
18.6 1316
18.66 1351
18.72 1383
18.78 1442
18.84 1434
18.9 1412
18.96 1434
19.02 1374
19.08 1481
19.14 1424
19.2 1507
19.26 1551
19.32 1536
19.38 1541
19.44 1495
19.5 1549
19.56 1562
19.62 1615
19.68 1604
19.74 1611
19.8 1602
19.86 1704
19.92 1623
19.98 1637
20 1635

File: 38-31.ASC
3 2902
3.06 2578
3.12 2265
3.18 2279
3.24 2059
3.3 2018
3.36 1889
3.42 1867
3.48 1847
3.54 1802
3.6 1784
3.66 1788
3.72 1828
3.78 1772
3.84 1780
3.9 1846
3.96 1801
4.02 2057
4.08 2082
4.14 1987
4.2 1781
4.26 1620
4.32 1511
4.38 1416
4.44 1350
4.5 1283
4.56 1357
4.62 1265
4.68 1201
4.74 1223
4.8 1199
4.86 1294
4.92 1300
4.98 1354
5.04 1451
5.1 1555
5.16 1782
5.22 1983
5.28 2335
5.34 3012
5.4 4463
5.46 3115
5.52 2475
5.58 2486
5.64 2692
5.7 3105
5.76 3465
5.82 2176
5.88 1276
5.94 1079
6 927
6.06 887
6.12 848
6.18 816
6.24 765
6.3 828
6.36 786
6.42 827
6.48 841
6.54 855
6.6 799
6.66 928
6.72 884
6.78 891
6.84 809
6.9 750
6.96 744
7.02 689
7.08 710
7.14 643
7.2 718
7.26 667
7.32 701
7.38 644
7.44 683
7.5 690
7.56 634
7.62 667
7.68 630
7.74 636
7.8 637
7.86 644
7.92 669
7.98 679
8.04 688
8.1 730
8.16 684
8.22 699
8.28 695
8.34 672
8.4 607
8.46 647
8.52 569
8.58 632
8.64 581
8.7 647
8.76 634
8.82 619
8.88 648
8.94 693
9 668
9.06 730
9.12 849
9.18 994
9.24 1200
9.3 1688
9.36 1446
9.42 722
9.48 670
9.54 661
9.6 625
9.66 633
9.72 624
9.78 614
9.84 704
9.9 663
9.96 679
10.02 669
10.08 742
10.14 746
10.2 772
10.26 667
10.32 620
10.38 573
10.44 636
10.5 610
10.56 671
10.62 709
10.68 822
10.74 977
10.8 1029
10.86 919
10.92 1012
10.98 927
11.04 688
11.1 601
11.16 621
11.22 635
11.28 627
11.34 681
11.4 652
11.46 717
11.52 717
11.58 702
11.64 632
11.7 590
11.76 625
11.82 612
11.88 592
11.94 644
12 582
12.06 661
12.12 736
12.18 761
12.24 818
12.3 741
12.36 656
12.42 644
12.48 624
12.54 641
12.6 652
12.66 588
12.72 657
12.78 556
12.84 630
12.9 658
12.96 637
13.02 581
13.08 600
13.14 628
13.2 633
13.26 694
13.32 620
13.38 636
13.44 657
13.5 660
13.56 618
13.62 602
13.68 627
13.74 622
13.8 660
13.86 696
13.92 664
13.98 635
14.04 659
14.1 674
14.16 649
14.22 713
14.28 693
14.34 658
14.4 724
14.46 685
14.52 700
14.58 645
14.64 759
14.7 671
14.76 690
14.82 728
14.88 728
14.94 713
15 685
15.06 721
15.12 685
15.18 775
15.24 725
15.3 720
15.36 725
15.42 728
15.48 727
15.54 748
15.6 772
15.66 691
15.72 733
15.78 761
15.84 720
15.9 771
15.96 693
16.02 813
16.08 794
16.14 826
16.2 811
16.26 878
16.32 867
16.38 879
16.44 898
16.5 875
16.56 897
16.62 820
16.68 944
16.74 961
16.8 1009
16.86 1167
16.92 1482
16.98 2249
17.04 1811
17.1 1047
17.16 966
17.22 974
17.28 972
17.34 971
17.4 937
17.46 925
17.52 965
17.58 956
17.64 935
17.7 1000
17.76 958
17.82 1013
17.88 1047
17.94 1001
18 1006
18.06 1074
18.12 1027
18.18 995
18.24 1026
18.3 1050
18.36 1098
18.42 1057
18.48 995
18.54 1070
18.6 1096
18.66 1229
18.72 1174
18.78 1186
18.84 1170
18.9 1203
18.96 1176
19.02 1204
19.08 1289
19.14 1269
19.2 1267
19.26 1168
19.32 1280
19.38 1367
19.44 1420
19.5 1426
19.56 1357
19.62 1326
19.68 1198
19.74 1290
19.8 1284
19.86 1323
19.92 1322
19.98 1287
20 1252

File: 38-32.ASC
3 2566
3.06 2229
3.12 2048
3.18 1903
3.24 1865
3.3 1739
3.36 1763
3.42 1686
3.48 1549
3.54 1571
3.6 1493
3.66 1483
3.72 1467
3.78 1400
3.84 1320
3.9 1438
3.96 1263
4.02 1282
4.08 1250
4.14 1201
4.2 1229
4.26 1214
4.32 1184
4.38 1129
4.44 1154
4.5 1098
4.56 1160
4.62 1102
4.68 1118
4.74 1046
4.8 1087
4.86 1054
4.92 1102
4.98 1104
5.04 1138
5.1 1104
5.16 1082
5.22 1231
5.28 1327
5.34 1426
5.4 1594
5.46 1706
5.52 1354
5.58 1202
5.64 1094
5.7 994
5.76 1018
5.82 948
5.88 944
5.94 944
6 923
6.06 958
6.12 902
6.18 917
6.24 879
6.3 836
6.36 903
6.42 866
6.48 799
6.54 900
6.6 846
6.66 849
6.72 812
6.78 875
6.84 858
6.9 872
6.96 828
7.02 813
7.08 823
7.14 836
7.2 840
7.26 794
7.32 835
7.38 782
7.44 764
7.5 834
7.56 866
7.62 787
7.68 787
7.74 808
7.8 801
7.86 773
7.92 851
7.98 798
8.04 810
8.1 819
8.16 806
8.22 784
8.28 772
8.34 794
8.4 774
8.46 773
8.52 810
8.58 793
8.64 775
8.7 796
8.76 794
8.82 770
8.88 791
8.94 751
9 782
9.06 789
9.12 816
9.18 846
9.24 820
9.3 988
9.36 1010
9.42 895
9.48 830
9.54 797
9.6 841
9.66 774
9.72 759
9.78 821
9.84 755
9.9 747
9.96 749
10.02 771
10.08 769
10.14 751
10.2 796
10.26 741
10.32 765
10.38 736
10.44 818
10.5 774
10.56 823
10.62 773
10.68 823
10.74 879
10.8 822
10.86 842
10.92 828
10.98 828
11.04 821
11.1 775
11.16 774
11.22 805
11.28 766
11.34 748
11.4 750
11.46 778
11.52 800
11.58 842
11.64 822
11.7 813
11.76 793
11.82 848
11.88 795
11.94 767
12 832
12.06 837
12.12 823
12.18 818
12.24 877
12.3 828
12.36 788
12.42 850
12.48 921
12.54 844
12.6 876
12.66 826
12.72 827
12.78 809
12.84 846
12.9 892
12.96 839
13.02 870
13.08 885
13.14 922
13.2 873
13.26 852
13.32 850
13.38 892
13.44 947
13.5 839
13.56 919
13.62 923
13.68 948
13.74 912
13.8 897
13.86 944
13.92 929
13.98 956
14.04 974
14.1 909
14.16 924
14.22 981
14.28 1002
14.34 1020
14.4 936
14.46 1007
14.52 960
14.58 978
14.64 967
14.7 976
14.76 1016
14.82 1083
14.88 1017
14.94 1006
15 1015
15.06 1032
15.12 1072
15.18 1080
15.24 1101
15.3 1074
15.36 1092
15.42 1057
15.48 1050
15.54 1082
15.6 1193
15.66 1161
15.72 1102
15.78 1086
15.84 1140
15.9 1097
15.96 1164
16.02 1198
16.08 1196
16.14 1215
16.2 1199
16.26 1215
16.32 1185
16.38 1179
16.44 1194
16.5 1219
16.56 1292
16.62 1306
16.68 1356
16.74 1394
16.8 1368
16.86 1529
16.92 1658
16.98 2016
17.04 2079
17.1 1678
17.16 1509
17.22 1444
17.28 1414
17.34 1436
17.4 1405
17.46 1436
17.52 1479
17.58 1416
17.64 1487
17.7 1532
17.76 1483
17.82 1570
17.88 1555
17.94 1539
18 1564
18.06 1598
18.12 1625
18.18 1651
18.24 1683
18.3 1714
18.36 1631
18.42 1729
18.48 1656
18.54 1685
18.6 1717
18.66 1767
18.72 1806
18.78 1839
18.84 1851
18.9 1882
18.96 1771
19.02 1798
19.08 1791
19.14 1876
19.2 1900
19.26 1838
19.32 1898
19.38 1952
19.44 1954
19.5 2019
19.56 1970
19.62 1980
19.68 2014
19.74 2007
19.8 2086
19.86 2063
19.92 2021
19.98 2008
20 2015

File: 38-35.ASC
3 2414
3.06 2003
3.12 1787
3.18 1696
3.24 1636
3.3 1608
3.36 1573
3.42 1519
3.48 1434
3.54 1463
3.6 1437
3.66 1443
3.72 1412
3.78 1355
3.84 1381
3.9 1428
3.96 1485
4.02 1477
4.08 1451
4.14 1394
4.2 1265
4.26 1184
4.32 1137
4.38 1074
4.44 1110
4.5 1083
4.56 1073
4.62 1135
4.68 1025
4.74 1093
4.8 1047
4.86 1031
4.92 1096
4.98 1103
5.04 1266
5.1 1440
5.16 1509
5.22 1729
5.28 1987
5.34 2494
5.4 3437
5.46 2263
5.52 2080
5.58 2227
5.64 2412
5.7 2899
5.76 3235
5.82 1937
5.88 1114
5.94 925
6 908
6.06 839
6.12 820
6.18 782
6.24 804
6.3 806
6.36 790
6.42 800
6.48 767
6.54 790
6.6 803
6.66 818
6.72 885
6.78 852
6.84 798
6.9 722
6.96 722
7.02 661
7.08 716
7.14 716
7.2 682
7.26 673
7.32 641
7.38 671
7.44 646
7.5 649
7.56 650
7.62 694
7.68 640
7.74 662
7.8 647
7.86 677
7.92 675
7.98 675
8.04 655
8.1 668
8.16 696
8.22 681
8.28 683
8.34 636
8.4 621
8.46 678
8.52 635
8.58 650
8.64 655
8.7 672
8.76 627
8.82 624
8.88 676
8.94 687
9 691
9.06 737
9.12 778
9.18 923
9.24 1063
9.3 1574
9.36 1105
9.42 682
9.48 674
9.54 670
9.6 680
9.66 638
9.72 666
9.78 652
9.84 656
9.9 651
9.96 627
10.02 695
10.08 714
10.14 814
10.2 755
10.26 630
10.32 594
10.38 659
10.44 609
10.5 636
10.56 702
10.62 718
10.68 807
10.74 921
10.8 958
10.86 913
10.92 964
10.98 859
11.04 683
11.1 630
11.16 677
11.22 603
11.28 689
11.34 680
11.4 646
11.46 673
11.52 733
11.58 719
11.64 698
11.7 585
11.76 607
11.82 679
11.88 618
11.94 696
12 635
12.06 636
12.12 681
12.18 672
12.24 692
12.3 671
12.36 622
12.42 661
12.48 637
12.54 660
12.6 638
12.66 578
12.72 612
12.78 607
12.84 654
12.9 628
12.96 654
13.02 682
13.08 701
13.14 744
13.2 891
13.26 1142
13.32 726
13.38 702
13.44 685
13.5 645
13.56 645
13.62 649
13.68 703
13.74 692
13.8 686
13.86 680
13.92 665
13.98 702
14.04 672
14.1 675
14.16 704
14.22 743
14.28 746
14.34 732
14.4 732
14.46 705
14.52 740
14.58 674
14.64 704
14.7 746
14.76 700
14.82 705
14.88 748
14.94 794
15 715
15.06 703
15.12 774
15.18 736
15.24 799
15.3 753
15.36 803
15.42 792
15.48 746
15.54 775
15.6 741
15.66 799
15.72 772
15.78 723
15.84 750
15.9 797
15.96 822
16.02 766
16.08 808
16.14 839
16.2 839
16.26 852
16.32 832
16.38 895
16.44 832
16.5 867
16.56 890
16.62 861
16.68 952
16.74 994
16.8 1235
16.86 1171
16.92 1795
16.98 3118
17.04 1941
17.1 1010
17.16 972
17.22 974
17.28 1027
17.34 1000
17.4 989
17.46 1016
17.52 950
17.58 978
17.64 1002
17.7 1031
17.76 1000
17.82 1061
17.88 1044
17.94 1090
18 1085
18.06 1082
18.12 1083
18.18 1007
18.24 1025
18.3 1083
18.36 1068
18.42 1066
18.48 1135
18.54 1164
18.6 1106
18.66 1106
18.72 1125
18.78 1169
18.84 1208
18.9 1218
18.96 1229
19.02 1190
19.08 1307
19.14 1281
19.2 1223
19.26 1231
19.32 1269
19.38 1329
19.44 1400
19.5 1394
19.56 1359
19.62 1270
19.68 1287
19.74 1359
19.8 1390
19.86 1287
19.92 1322
19.98 1338
20 1284

File: 38-38-1.ASC
3 2263
3.06 1804
3.12 1557
3.18 1543
3.24 1573
3.3 1476
3.36 1492
3.42 1445
3.48 1397
3.54 1428
3.6 1372
3.66 1379
3.72 1307
3.78 1299
3.84 1299
3.9 1330
3.96 1246
4.02 1254
4.08 1240
4.14 1222
4.2 1219
4.26 1202
4.32 1184
4.38 1253
4.44 1194
4.5 1193
4.56 1274
4.62 1248
4.68 1245
4.74 1278
4.8 1217
4.86 1211
4.92 1255
4.98 1244
5.04 1257
5.1 1271
5.16 1279
5.22 1352
5.28 1425
5.34 1441
5.4 1602
5.46 1806
5.52 2043
5.58 2097
5.64 1798
5.7 1501
5.76 1334
5.82 1248
5.88 1194
5.94 1257
6 1155
6.06 1092
6.12 1057
6.18 1086
6.24 1117
6.3 1049
6.36 957
6.42 992
6.48 966
6.54 976
6.6 935
6.66 879
6.72 908
6.78 924
6.84 915
6.9 892
6.96 878
7.02 841
7.08 882
7.14 856
7.2 807
7.26 814
7.32 813
7.38 809
7.44 777
7.5 781
7.56 783
7.62 816
7.68 786
7.74 704
7.8 752
7.86 761
7.92 801
7.98 705
8.04 732
8.1 706
8.16 726
8.22 692
8.28 737
8.34 730
8.4 708
8.46 715
8.52 734
8.58 710
8.64 770
8.7 706
8.76 712
8.82 695
8.88 732
8.94 752
9 692
9.06 741
9.12 778
9.18 805
9.24 821
9.3 825
9.36 908
9.42 984
9.48 975
9.54 979
9.6 767
9.66 701
9.72 712
9.78 697
9.84 665
9.9 652
9.96 678
10.02 646
10.08 603
10.14 683
10.2 651
10.26 664
10.32 637
10.38 628
10.44 614
10.5 631
10.56 651
10.62 643
10.68 633
10.74 681
10.8 718
10.86 694
10.92 737
10.98 711
11.04 684
11.1 661
11.16 623
11.22 603
11.28 621
11.34 607
11.4 569
11.46 635
11.52 587
11.58 578
11.64 624
11.7 559
11.76 561
11.82 544
11.88 577
11.94 547
12 548
12.06 590
12.12 598
12.18 576
12.24 575
12.3 582
12.36 574
12.42 569
12.48 540
12.54 597
12.6 523
12.66 589
12.72 570
12.78 587
12.84 560
12.9 585
12.96 584
13.02 576
13.08 560
13.14 555
13.2 588
13.26 592
13.32 611
13.38 662
13.44 690
13.5 632
13.56 592
13.62 585
13.68 607
13.74 540
13.8 566
13.86 562
13.92 559
13.98 559
14.04 593
14.1 516
14.16 542
14.22 537
14.28 526
14.34 552
14.4 532
14.46 552
14.52 583
14.58 529
14.64 615
14.7 524
14.76 566
14.82 552
14.88 549
14.94 586
15 528
15.06 542
15.12 527
15.18 569
15.24 548
15.3 575
15.36 578
15.42 557
15.48 540
15.54 615
15.6 542
15.66 555
15.72 548
15.78 534
15.84 542
15.9 587
15.96 574
16.02 570
16.08 573
16.14 539
16.2 559
16.26 550
16.32 585
16.38 654
16.44 574
16.5 601
16.56 688
16.62 757
16.68 797
16.74 921
16.8 1084
16.86 1501
16.92 2220
16.98 3656
17.04 5671
17.1 7506
17.16 7147
17.22 4147
17.28 1727
17.34 1023
17.4 842
17.46 740
17.52 742
17.58 664
17.64 688
17.7 652
17.76 611
17.82 648
17.88 662
17.94 724
18 618
18.06 647
18.12 638
18.18 627
18.24 651
18.3 657
18.36 626
18.42 677
18.48 666
18.54 634
18.6 662
18.66 679
18.72 641
18.78 635
18.84 662
18.9 616
18.96 676
19.02 659
19.08 677
19.14 716
19.2 675
19.26 731
19.32 674
19.38 674
19.44 695
19.5 704
19.56 683
19.62 762
19.68 713
19.74 708
19.8 734
19.86 727
19.92 753
19.98 710
20 677

File: 38-39.ASC
3 2516
3.06 2059
3.12 1750
3.18 1679
3.24 1554
3.3 1658
3.36 1555
3.42 1486
3.48 1376
3.54 1356
3.6 1378
3.66 1370
3.72 1353
3.78 1216
3.84 1200
3.9 1253
3.96 1218
4.02 1196
4.08 1160
4.14 1161
4.2 1130
4.26 1034
4.32 958
4.38 952
4.44 945
4.5 987
4.56 872
4.62 933
4.68 952
4.74 888
4.8 892
4.86 893
4.92 905
4.98 919
5.04 1034
5.1 987
5.16 1122
5.22 1196
5.28 1314
5.34 1485
5.4 1956
5.46 1889
5.52 1577
5.58 1364
5.64 1381
5.7 1489
5.76 1599
5.82 1303
5.88 1090
5.94 803
6 766
6.06 776
6.12 764
6.18 681
6.24 688
6.3 695
6.36 704
6.42 688
6.48 675
6.54 665
6.6 634
6.66 688
6.72 744
6.78 713
6.84 709
6.9 713
6.96 678
7.02 655
7.08 635
7.14 618
7.2 657
7.26 685
7.32 663
7.38 637
7.44 653
7.5 629
7.56 615
7.62 672
7.68 628
7.74 649
7.8 650
7.86 639
7.92 644
7.98 641
8.04 637
8.1 667
8.16 627
8.22 650
8.28 647
8.34 631
8.4 599
8.46 597
8.52 620
8.58 617
8.64 629
8.7 629
8.76 662
8.82 608
8.88 655
8.94 704
9 679
9.06 653
9.12 690
9.18 722
9.24 820
9.3 963
9.36 982
9.42 835
9.48 707
9.54 669
9.6 621
9.66 607
9.72 681
9.78 569
9.84 627
9.9 590
9.96 622
10.02 627
10.08 678
10.14 662
10.2 667
10.26 671
10.32 679
10.38 604
10.44 609
10.5 620
10.56 689
10.62 706
10.68 720
10.74 748
10.8 883
10.86 753
10.92 765
10.98 765
11.04 681
11.1 662
11.16 652
11.22 623
11.28 632
11.34 613
11.4 643
11.46 682
11.52 692
11.58 656
11.64 641
11.7 636
11.76 671
11.82 674
11.88 631
11.94 657
12 614
12.06 678
12.12 636
12.18 719
12.24 712
12.3 701
12.36 681
12.42 658
12.48 661
12.54 658
12.6 676
12.66 665
12.72 666
12.78 702
12.84 683
12.9 644
12.96 682
13.02 681
13.08 703
13.14 671
13.2 707
13.26 712
13.32 700
13.38 715
13.44 733
13.5 706
13.56 718
13.62 713
13.68 703
13.74 741
13.8 701
13.86 752
13.92 691
13.98 733
14.04 777
14.1 769
14.16 706
14.22 756
14.28 771
14.34 783
14.4 794
14.46 779
14.52 784
14.58 822
14.64 832
14.7 762
14.76 785
14.82 833
14.88 814
14.94 863
15 862
15.06 867
15.12 821
15.18 834
15.24 818
15.3 906
15.36 884
15.42 885
15.48 898
15.54 890
15.6 910
15.66 899
15.72 892
15.78 923
15.84 875
15.9 911
15.96 959
16.02 967
16.08 981
16.14 925
16.2 962
16.26 971
16.32 994
16.38 1027
16.44 942
16.5 1030
16.56 1026
16.62 1053
16.68 1053
16.74 1114
16.8 1141
16.86 1151
16.92 1274
16.98 1405
17.04 1344
17.1 1162
17.16 1141
17.22 1111
17.28 1142
17.34 1125
17.4 1200
17.46 1175
17.52 1182
17.58 1209
17.64 1227
17.7 1216
17.76 1244
17.82 1200
17.88 1194
17.94 1259
18 1317
18.06 1251
18.12 1330
18.18 1343
18.24 1274
18.3 1309
18.36 1330
18.42 1347
18.48 1327
18.54 1368
18.6 1398
18.66 1336
18.72 1428
18.78 1438
18.84 1474
18.9 1514
18.96 1439
19.02 1492
19.08 1512
19.14 1496
19.2 1536
19.26 1542
19.32 1552
19.38 1629
19.44 1691
19.5 1586
19.56 1646
19.62 1602
19.68 1603
19.74 1621
19.8 1588
19.86 1683
19.92 1672
19.98 1694
20 1645

File: 38-40.ASC
3 3069
3.06 2469
3.12 2375
3.18 2224
3.24 2129
3.3 2068
3.36 1971
3.42 1988
3.48 1879
3.54 1756
3.6 1764
3.66 1689
3.72 1702
3.78 1562
3.84 1604
3.9 1489
3.96 1460
4.02 1436
4.08 1346
4.14 1299
4.2 1220
4.26 1276
4.32 1256
4.38 1238
4.44 1177
4.5 1160
4.56 1143
4.62 1110
4.68 1070
4.74 1081
4.8 1023
4.86 1062
4.92 991
4.98 1050
5.04 1020
5.1 1015
5.16 974
5.22 1071
5.28 1137
5.34 1200
5.4 1319
5.46 1462
5.52 1409
5.58 1083
5.64 955
5.7 955
5.76 903
5.82 882
5.88 842
5.94 825
6 809
6.06 826
6.12 788
6.18 765
6.24 827
6.3 748
6.36 704
6.42 700
6.48 768
6.54 701
6.6 710
6.66 656
6.72 743
6.78 704
6.84 712
6.9 728
6.96 654
7.02 725
7.08 655
7.14 700
7.2 677
7.26 674
7.32 695
7.38 690
7.44 726
7.5 689
7.56 696
7.62 677
7.68 638
7.74 665
7.8 671
7.86 578
7.92 656
7.98 635
8.04 666
8.1 588
8.16 603
8.22 603
8.28 620
8.34 612
8.4 670
8.46 681
8.52 631
8.58 624
8.64 631
8.7 648
8.76 602
8.82 600
8.88 603
8.94 598
9 616
9.06 612
9.12 612
9.18 604
9.24 638
9.3 698
9.36 743
9.42 720
9.48 684
9.54 629
9.6 627
9.66 613
9.72 600
9.78 619
9.84 589
9.9 544
9.96 556
10.02 575
10.08 575
10.14 600
10.2 564
10.26 559
10.32 590
10.38 575
10.44 615
10.5 620
10.56 608
10.62 644
10.68 560
10.74 664
10.8 657
10.86 666
10.92 611
10.98 602
11.04 622
11.1 606
11.16 589
11.22 562
11.28 606
11.34 588
11.4 589
11.46 545
11.52 604
11.58 600
11.64 562
11.7 572
11.76 607
11.82 612
11.88 587
11.94 581
12 580
12.06 619
12.12 583
12.18 617
12.24 555
12.3 582
12.36 607
12.42 660
12.48 615
12.54 621
12.6 540
12.66 567
12.72 590
12.78 586
12.84 619
12.9 610
12.96 662
13.02 623
13.08 643
13.14 593
13.2 599
13.26 639
13.32 644
13.38 641
13.44 643
13.5 625
13.56 638
13.62 653
13.68 641
13.74 646
13.8 645
13.86 621
13.92 650
13.98 650
14.04 676
14.1 669
14.16 705
14.22 679
14.28 677
14.34 688
14.4 663
14.46 710
14.52 715
14.58 717
14.64 702
14.7 727
14.76 734
14.82 745
14.88 662
14.94 701
15 760
15.06 741
15.12 672
15.18 750
15.24 760
15.3 751
15.36 746
15.42 758
15.48 823
15.54 747
15.6 746
15.66 806
15.72 820
15.78 757
15.84 774
15.9 789
15.96 824
16.02 840
16.08 841
16.14 872
16.2 848
16.26 852
16.32 881
16.38 855
16.44 877
16.5 878
16.56 856
16.62 976
16.68 940
16.74 924
16.8 1007
16.86 1031
16.92 1085
16.98 1405
17.04 1654
17.1 1388
17.16 1143
17.22 1019
17.28 1017
17.34 1029
17.4 1061
17.46 1027
17.52 1050
17.58 1035
17.64 1022
17.7 1129
17.76 1091
17.82 1109
17.88 1145
17.94 1089
18 1096
18.06 1117
18.12 1120
18.18 1128
18.24 1098
18.3 1125
18.36 1184
18.42 1237
18.48 1232
18.54 1197
18.6 1208
18.66 1262
18.72 1226
18.78 1250
18.84 1212
18.9 1200
18.96 1251
19.02 1281
19.08 1300
19.14 1287
19.2 1309
19.26 1341
19.32 1342
19.38 1323
19.44 1360
19.5 1344
19.56 1405
19.62 1416
19.68 1351
19.74 1433
19.8 1419
19.86 1452
19.92 1488
19.98 1421
20 1478

File: 39-2.ASC
3 2763
3.06 2460
3.12 2222
3.18 2128
3.24 2062
3.3 2150
3.36 2075
3.42 1997
3.48 2073
3.54 1991
3.6 2013
3.66 1953
3.72 1997
3.78 1984
3.84 1996
3.9 2020
3.96 2052
4.02 1974
4.08 2010
4.14 1941
4.2 1986
4.26 2009
4.32 2066
4.38 2042
4.44 2057
4.5 2021
4.56 2145
4.62 2093
4.68 2139
4.74 2183
4.8 2129
4.86 2101
4.92 2174
4.98 2146
5.04 2135
5.1 2212
5.16 2251
5.22 2391
5.28 2474
5.34 2575
5.4 3052
5.46 2351
5.52 1981
5.58 1885
5.64 1825
5.7 1759
5.76 1635
5.82 1664
5.88 1564
5.94 1529
6 1538
6.06 1478
6.12 1434
6.18 1391
6.24 1289
6.3 1261
6.36 1290
6.42 1285
6.48 1172
6.54 1200
6.6 1161
6.66 1184
6.72 1129
6.78 1161
6.84 1120
6.9 1120
6.96 1116
7.02 1051
7.08 973
7.14 1085
7.2 1014
7.26 1000
7.32 1039
7.38 983
7.44 989
7.5 993
7.56 1020
7.62 1049
7.68 1119
7.74 1016
7.8 1049
7.86 1013
7.92 1002
7.98 950
8.04 958
8.1 894
8.16 922
8.22 906
8.28 937
8.34 925
8.4 887
8.46 887
8.52 927
8.58 864
8.64 844
8.7 895
8.76 864
8.82 827
8.88 928
8.94 870
9 901
9.06 893
9.12 932
9.18 939
9.24 944
9.3 1035
9.36 1061
9.42 862
9.48 841
9.54 831
9.6 795
9.66 768
9.72 802
9.78 807
9.84 777
9.9 784
9.96 749
10.02 739
10.08 777
10.14 752
10.2 737
10.26 739
10.32 697
10.38 775
10.44 745
10.5 742
10.56 792
10.62 769
10.68 801
10.74 814
10.8 859
10.86 789
10.92 769
10.98 694
11.04 684
11.1 719
11.16 683
11.22 708
11.28 669
11.34 639
11.4 664
11.46 682
11.52 667
11.58 639
11.64 634
11.7 706
11.76 681
11.82 681
11.88 672
11.94 629
12 614
12.06 665
12.12 645
12.18 697
12.24 672
12.3 743
12.36 773
12.42 726
12.48 678
12.54 711
12.6 673
12.66 660
12.72 679
12.78 660
12.84 678
12.9 635
12.96 695
13.02 681
13.08 655
13.14 633
13.2 692
13.26 716
13.32 664
13.38 683
13.44 693
13.5 665
13.56 659
13.62 677
13.68 618
13.74 610
13.8 660
13.86 663
13.92 623
13.98 650
14.04 674
14.1 674
14.16 691
14.22 688
14.28 640
14.34 630
14.4 670
14.46 648
14.52 604
14.58 633
14.64 632
14.7 634
14.76 683
14.82 655
14.88 652
14.94 667
15 629
15.06 617
15.12 613
15.18 655
15.24 616
15.3 659
15.36 636
15.42 658
15.48 652
15.54 653
15.6 649
15.66 661
15.72 642
15.78 600
15.84 648
15.9 690
15.96 703
16.02 650
16.08 671
16.14 683
16.2 622
16.26 655
16.32 660
16.38 641
16.44 718
16.5 684
16.56 700
16.62 687
16.68 697
16.74 685
16.8 717
16.86 673
16.92 770
16.98 758
17.04 705
17.1 692
17.16 729
17.22 743
17.28 770
17.34 746
17.4 733
17.46 748
17.52 743
17.58 789
17.64 731
17.7 767
17.76 714
17.82 744
17.88 802
17.94 790
18 783
18.06 810
18.12 806
18.18 827
18.24 759
18.3 825
18.36 809
18.42 780
18.48 787
18.54 759
18.6 825
18.66 817
18.72 795
18.78 824
18.84 842
18.9 833
18.96 838
19.02 844
19.08 871
19.14 842
19.2 823
19.26 863
19.32 868
19.38 891
19.44 866
19.5 962
19.56 973
19.62 933
19.68 894
19.74 904
19.8 941
19.86 918
19.92 866
19.98 897
20 956