Folder: CPC-code/xrd-UiO-67/pxrddata (part 9)

File: 9-11.ASC
3 2049
3.06 1634
3.12 1420
3.18 1389
3.24 1340
3.3 1237
3.36 1197
3.42 1168
3.48 1094
3.54 1033
3.6 1025
3.66 1090
3.72 1014
3.78 981
3.84 952
3.9 950
3.96 943
4.02 881
4.08 924
4.14 879
4.2 811
4.26 795
4.32 864
4.38 820
4.44 720
4.5 822
4.56 778
4.62 774
4.68 704
4.74 689
4.8 748
4.86 724
4.92 662
4.98 717
5.04 728
5.1 725
5.16 693
5.22 694
5.28 743
5.34 679
5.4 717
5.46 711
5.52 711
5.58 752
5.64 716
5.7 711
5.76 732
5.82 806
5.88 805
5.94 768
6 783
6.06 776
6.12 806
6.18 832
6.24 881
6.3 927
6.36 959
6.42 1033
6.48 1094
6.54 1216
6.6 1113
6.66 1113
6.72 1046
6.78 979
6.84 973
6.9 914
6.96 965
7.02 903
7.08 883
7.14 846
7.2 880
7.26 861
7.32 854
7.38 825
7.44 881
7.5 833
7.56 905
7.62 831
7.68 817
7.74 869
7.8 869
7.86 918
7.92 867
7.98 846
8.04 858
8.1 861
8.16 903
8.22 886
8.28 915
8.34 911
8.4 918
8.46 920
8.52 978
8.58 1091
8.64 1086
8.7 1209
8.76 1328
8.82 1587
8.88 1916
8.94 2718
9 3318
9.06 2408
9.12 1891
9.18 1671
9.24 1546
9.3 1487
9.36 1364
9.42 1303
9.48 1248
9.54 1253
9.6 1246
9.66 1308
9.72 1278
9.78 1384
9.84 1431
9.9 1504
9.96 1602
10.02 1592
10.08 1581
10.14 1566
10.2 1359
10.26 1318
10.32 1286
10.38 1243
10.44 1287
10.5 1244
10.56 1245
10.62 1258
10.68 1302
10.74 1287
10.8 1309
10.86 1292
10.92 1365
10.98 1362
11.04 1280
11.1 1234
11.16 1114
11.22 1055
11.28 953
11.34 923
11.4 899
11.46 821
11.52 846
11.58 786
11.64 804
11.7 788
11.76 781
11.82 764
11.88 770
11.94 793
12 763
12.06 829
12.12 786
12.18 759
12.24 786
12.3 827
12.36 851
12.42 973
12.48 952
12.54 1149
12.6 1427
12.66 1770
12.72 1714
12.78 1212
12.84 1020
12.9 971
12.96 966
13.02 954
13.08 879
13.14 879
13.2 851
13.26 845
13.32 847
13.38 862
13.44 799
13.5 894
13.56 856
13.62 878
13.68 844
13.74 844
13.8 819
13.86 870
13.92 880
13.98 860
14.04 873
14.1 867
14.16 888
14.22 882
14.28 921
14.34 860
14.4 890
14.46 873
14.52 894
14.58 921
14.64 909
14.7 864
14.76 846
14.82 833
14.88 902
14.94 879
15 840
15.06 864
15.12 886
15.18 849
15.24 866
15.3 843
15.36 905
15.42 865
15.48 894
15.54 878
15.6 852
15.66 834
15.72 899
15.78 863
15.84 877
15.9 894
15.96 949
16.02 882
16.08 946
16.14 834
16.2 945
16.26 993
16.32 936
16.38 993
16.44 950
16.5 931
16.56 1021
16.62 943
16.68 978
16.74 983
16.8 1047
16.86 1162
16.92 1358
16.98 1703
17.04 2201
17.1 1675
17.16 1206
17.22 1142
17.28 1066
17.34 1060
17.4 1055
17.46 1087
17.52 1128
17.58 1085
17.64 1038
17.7 1100
17.76 1118
17.82 1160
17.88 1253
17.94 1214
18 1181
18.06 1173
18.12 1189
18.18 1200
18.24 1268
18.3 1290
18.36 1300
18.42 1283
18.48 1252
18.54 1391
18.6 1313
18.66 1329
18.72 1323
18.78 1329
18.84 1358
18.9 1445
18.96 1465
19.02 1395
19.08 1433
19.14 1427
19.2 1487
19.26 1411
19.32 1439
19.38 1522
19.44 1414
19.5 1538
19.56 1414
19.62 1557
19.68 1560
19.74 1495
19.8 1516
19.86 1524
19.92 1587
19.98 1661
20 1646

File: 9-12.ASC
3 2257
3.06 1821
3.12 1623
3.18 1602
3.24 1502
3.3 1337
3.36 1334
3.42 1253
3.48 1186
3.54 1210
3.6 1150
3.66 1135
3.72 1097
3.78 1024
3.84 1016
3.9 966
3.96 945
4.02 915
4.08 838
4.14 816
4.2 796
4.26 798
4.32 803
4.38 746
4.44 794
4.5 737
4.56 732
4.62 716
4.68 681
4.74 666
4.8 730
4.86 657
4.92 631
4.98 638
5.04 647
5.1 594
5.16 619
5.22 635
5.28 630
5.34 651
5.4 625
5.46 617
5.52 614
5.58 602
5.64 609
5.7 616
5.76 654
5.82 624
5.88 592
5.94 612
6 585
6.06 623
6.12 612
6.18 591
6.24 573
6.3 613
6.36 575
6.42 632
6.48 567
6.54 575
6.6 623
6.66 628
6.72 593
6.78 578
6.84 601
6.9 568
6.96 555
7.02 579
7.08 553
7.14 518
7.2 579
7.26 597
7.32 591
7.38 613
7.44 623
7.5 597
7.56 570
7.62 597
7.68 593
7.74 546
7.8 558
7.86 603
7.92 552
7.98 584
8.04 586
8.1 549
8.16 551
8.22 572
8.28 597
8.34 615
8.4 616
8.46 632
8.52 595
8.58 648
8.64 721
8.7 822
8.76 909
8.82 1046
8.88 1012
8.94 1080
9 1137
9.06 997
9.12 857
9.18 704
9.24 737
9.3 726
9.36 719
9.42 711
9.48 658
9.54 639
9.6 633
9.66 729
9.72 676
9.78 786
9.84 896
9.9 1082
9.96 1074
10.02 919
10.08 733
10.14 647
10.2 603
10.26 649
10.32 589
10.38 565
10.44 600
10.5 532
10.56 555
10.62 586
10.68 519
10.74 570
10.8 577
10.86 571
10.92 589
10.98 556
11.04 556
11.1 515
11.16 549
11.22 536
11.28 530
11.34 514
11.4 518
11.46 486
11.52 501
11.58 560
11.64 570
11.7 528
11.76 521
11.82 530
11.88 532
11.94 515
12 518
12.06 513
12.12 498
12.18 509
12.24 557
12.3 527
12.36 531
12.42 519
12.48 571
12.54 604
12.6 659
12.66 645
12.72 650
12.78 648
12.84 575
12.9 547
12.96 493
13.02 578
13.08 557
13.14 583
13.2 567
13.26 617
13.32 659
13.38 666
13.44 629
13.5 546
13.56 550
13.62 556
13.68 559
13.74 556
13.8 540
13.86 521
13.92 516
13.98 506
14.04 516
14.1 553
14.16 551
14.22 494
14.28 535
14.34 526
14.4 574
14.46 609
14.52 559
14.58 554
14.64 541
14.7 576
14.76 558
14.82 571
14.88 572
14.94 500
15 560
15.06 559
15.12 602
15.18 549
15.24 581
15.3 609
15.36 545
15.42 612
15.48 575
15.54 595
15.6 614
15.66 576
15.72 598
15.78 583
15.84 639
15.9 576
15.96 565
16.02 627
16.08 647
16.14 610
16.2 598
16.26 644
16.32 638
16.38 630
16.44 571
16.5 630
16.56 626
16.62 675
16.68 684
16.74 699
16.8 739
16.86 873
16.92 1134
16.98 1522
17.04 1651
17.1 1141
17.16 846
17.22 691
17.28 740
17.34 702
17.4 763
17.46 694
17.52 710
17.58 723
17.64 720
17.7 670
17.76 756
17.82 782
17.88 747
17.94 763
18 761
18.06 777
18.12 759
18.18 754
18.24 754
18.3 757
18.36 783
18.42 812
18.48 765
18.54 830
18.6 831
18.66 813
18.72 829
18.78 892
18.84 789
18.9 799
18.96 841
19.02 784
19.08 857
19.14 822
19.2 821
19.26 839
19.32 858
19.38 880
19.44 962
19.5 880
19.56 940
19.62 928
19.68 902
19.74 975
19.8 970
19.86 1032
19.92 989
19.98 1027
20 968

File: 9-16.ASC
3 2075
3.06 1596
3.12 1470
3.18 1361
3.24 1372
3.3 1285
3.36 1219
3.42 1156
3.48 1219
3.54 1100
3.6 1098
3.66 1058
3.72 1012
3.78 993
3.84 1001
3.9 934
3.96 936
4.02 905
4.08 870
4.14 861
4.2 820
4.26 768
4.32 794
4.38 733
4.44 761
4.5 689
4.56 700
4.62 670
4.68 712
4.74 719
4.8 673
4.86 640
4.92 692
4.98 659
5.04 658
5.1 671
5.16 630
5.22 612
5.28 657
5.34 610
5.4 630
5.46 626
5.52 607
5.58 605
5.64 599
5.7 602
5.76 636
5.82 621
5.88 585
5.94 617
6 610
6.06 612
6.12 573
6.18 624
6.24 575
6.3 581
6.36 586
6.42 547
6.48 598
6.54 571
6.6 540
6.66 585
6.72 587
6.78 580
6.84 585
6.9 553
6.96 605
7.02 567
7.08 598
7.14 533
7.2 607
7.26 601
7.32 592
7.38 622
7.44 561
7.5 554
7.56 585
7.62 549
7.68 585
7.74 594
7.8 547
7.86 561
7.92 624
7.98 561
8.04 572
8.1 552
8.16 575
8.22 553
8.28 607
8.34 583
8.4 577
8.46 629
8.52 574
8.58 621
8.64 668
8.7 727
8.76 814
8.82 921
8.88 1143
8.94 1385
9 1530
9.06 1555
9.12 1371
9.18 1027
9.24 793
9.3 772
9.36 668
9.42 625
9.48 625
9.54 658
9.6 653
9.66 716
9.72 770
9.78 815
9.84 860
9.9 1079
9.96 1210
10.02 1324
10.08 1176
10.14 901
10.2 661
10.26 623
10.32 593
10.38 543
10.44 550
10.5 545
10.56 550
10.62 515
10.68 553
10.74 506
10.8 516
10.86 523
10.92 520
10.98 541
11.04 536
11.1 531
11.16 499
11.22 509
11.28 495
11.34 511
11.4 490
11.46 494
11.52 480
11.58 492
11.64 460
11.7 477
11.76 509
11.82 527
11.88 503
11.94 497
12 475
12.06 520
12.12 467
12.18 486
12.24 462
12.3 477
12.36 489
12.42 548
12.48 568
12.54 529
12.6 625
12.66 601
12.72 691
12.78 602
12.84 562
12.9 556
12.96 521
13.02 579
13.08 552
13.14 539
13.2 541
13.26 559
13.32 591
13.38 624
13.44 632
13.5 574
13.56 484
13.62 507
13.68 494
13.74 497
13.8 519
13.86 557
13.92 536
13.98 497
14.04 496
14.1 486
14.16 534
14.22 490
14.28 496
14.34 531
14.4 521
14.46 520
14.52 490
14.58 530
14.64 551
14.7 521
14.76 538
14.82 509
14.88 535
14.94 535
15 516
15.06 533
15.12 555
15.18 524
15.24 551
15.3 516
15.36 560
15.42 544
15.48 545
15.54 571
15.6 571
15.66 506
15.72 545
15.78 547
15.84 560
15.9 516
15.96 547
16.02 550
16.08 539
16.14 579
16.2 563
16.26 548
16.32 575
16.38 600
16.44 622
16.5 596
16.56 629
16.62 639
16.68 661
16.74 632
16.8 730
16.86 858
16.92 1057
16.98 1348
17.04 1620
17.1 1802
17.16 1484
17.22 891
17.28 730
17.34 732
17.4 714
17.46 741
17.52 686
17.58 688
17.64 687
17.7 680
17.76 680
17.82 662
17.88 701
17.94 670
18 674
18.06 698
18.12 721
18.18 708
18.24 717
18.3 689
18.36 678
18.42 714
18.48 710
18.54 699
18.6 733
18.66 697
18.72 732
18.78 702
18.84 742
18.9 737
18.96 756
19.02 744
19.08 730
19.14 709
19.2 782
19.26 771
19.32 829
19.38 809
19.44 791
19.5 820
19.56 799
19.62 798
19.68 845
19.74 823
19.8 858
19.86 869
19.92 922
19.98 967
20 998

File: 9-18.ASC
3 2506
3.06 2169
3.12 1872
3.18 1694
3.24 1583
3.3 1533
3.36 1479
3.42 1338
3.48 1350
3.54 1250
3.6 1292
3.66 1185
3.72 1143
3.78 1096
3.84 1096
3.9 1017
3.96 1021
4.02 952
4.08 948
4.14 874
4.2 873
4.26 865
4.32 806
4.38 777
4.44 803
4.5 744
4.56 750
4.62 722
4.68 747
4.74 706
4.8 696
4.86 710
4.92 658
4.98 654
5.04 648
5.1 641
5.16 642
5.22 617
5.28 601
5.34 629
5.4 609
5.46 635
5.52 544
5.58 599
5.64 597
5.7 585
5.76 609
5.82 622
5.88 585
5.94 600
6 601
6.06 606
6.12 574
6.18 586
6.24 588
6.3 584
6.36 548
6.42 553
6.48 543
6.54 614
6.6 603
6.66 527
6.72 538
6.78 578
6.84 578
6.9 570
6.96 580
7.02 523
7.08 552
7.14 529
7.2 611
7.26 524
7.32 548
7.38 576
7.44 546
7.5 552
7.56 532
7.62 563
7.68 563
7.74 576
7.8 526
7.86 514
7.92 561
7.98 576
8.04 532
8.1 547
8.16 550
8.22 572
8.28 597
8.34 555
8.4 603
8.46 564
8.52 589
8.58 664
8.64 716
8.7 784
8.76 912
8.82 1087
8.88 1292
8.94 1456
9 1527
9.06 1104
9.12 817
9.18 811
9.24 692
9.3 678
9.36 643
9.42 638
9.48 635
9.54 590
9.6 647
9.66 668
9.72 767
9.78 848
9.84 941
9.9 1217
9.96 1149
10.02 795
10.08 621
10.14 568
10.2 504
10.26 540
10.32 494
10.38 484
10.44 458
10.5 492
10.56 482
10.62 485
10.68 541
10.74 472
10.8 512
10.86 502
10.92 490
10.98 513
11.04 496
11.1 457
11.16 490
11.22 445
11.28 495
11.34 438
11.4 467
11.46 477
11.52 447
11.58 422
11.64 475
11.7 433
11.76 442
11.82 461
11.88 459
11.94 473
12 459
12.06 471
12.12 487
12.18 471
12.24 450
12.3 448
12.36 427
12.42 486
12.48 511
12.54 552
12.6 608
12.66 549
12.72 559
12.78 523
12.84 540
12.9 486
12.96 461
13.02 505
13.08 508
13.14 557
13.2 500
13.26 576
13.32 610
13.38 663
13.44 583
13.5 559
13.56 502
13.62 476
13.68 444
13.74 433
13.8 464
13.86 482
13.92 439
13.98 463
14.04 457
14.1 445
14.16 468
14.22 451
14.28 481
14.34 421
14.4 510
14.46 455
14.52 438
14.58 496
14.64 504
14.7 477
14.76 471
14.82 486
14.88 480
14.94 449
15 486
15.06 489
15.12 444
15.18 453
15.24 524
15.3 487
15.36 478
15.42 514
15.48 503
15.54 499
15.6 495
15.66 508
15.72 516
15.78 501
15.84 495
15.9 491
15.96 514
16.02 560
16.08 522
16.14 506
16.2 500
16.26 558
16.32 527
16.38 477
16.44 556
16.5 495
16.56 544
16.62 520
16.68 512
16.74 614
16.8 606
16.86 681
16.92 802
16.98 901
17.04 731
17.1 582
17.16 571
17.22 546
17.28 540
17.34 599
17.4 551
17.46 542
17.52 537
17.58 614
17.64 604
17.7 613
17.76 606
17.82 604
17.88 650
17.94 611
18 581
18.06 615
18.12 609
18.18 643
18.24 616
18.3 654
18.36 685
18.42 648
18.48 672
18.54 635
18.6 679
18.66 646
18.72 636
18.78 658
18.84 626
18.9 655
18.96 651
19.02 659
19.08 693
19.14 655
19.2 666
19.26 663
19.32 628
19.38 689
19.44 711
19.5 698
19.56 653
19.62 738
19.68 754
19.74 798
19.8 898
19.86 888
19.92 938
19.98 866
20 906

File: 9-19.ASC
3 2397
3.06 2033
3.12 1760
3.18 1710
3.24 1676
3.3 1540
3.36 1462
3.42 1483
3.48 1330
3.54 1371
3.6 1355
3.66 1263
3.72 1241
3.78 1226
3.84 1141
3.9 1110
3.96 1134
4.02 1061
4.08 1009
4.14 1003
4.2 1034
4.26 962
4.32 950
4.38 905
4.44 954
4.5 914
4.56 887
4.62 870
4.68 842
4.74 828
4.8 840
4.86 823
4.92 837
4.98 823
5.04 778
5.1 740
5.16 764
5.22 729
5.28 790
5.34 722
5.4 772
5.46 771
5.52 778
5.58 783
5.64 780
5.7 768
5.76 759
5.82 716
5.88 719
5.94 669
6 784
6.06 746
6.12 751
6.18 730
6.24 748
6.3 667
6.36 717
6.42 743
6.48 733
6.54 728
6.6 709
6.66 734
6.72 760
6.78 688
6.84 681
6.9 724
6.96 681
7.02 719
7.08 722
7.14 699
7.2 721
7.26 729
7.32 699
7.38 739
7.44 749
7.5 690
7.56 687
7.62 738
7.68 689
7.74 695
7.8 714
7.86 771
7.92 682
7.98 707
8.04 723
8.1 736
8.16 676
8.22 712
8.28 721
8.34 735
8.4 716
8.46 750
8.52 753
8.58 784
8.64 765
8.7 869
8.76 885
8.82 978
8.88 1138
8.94 1292
9 1276
9.06 1225
9.12 1100
9.18 977
9.24 937
9.3 889
9.36 844
9.42 802
9.48 809
9.54 809
9.6 800
9.66 867
9.72 932
9.78 964
9.84 983
9.9 1049
9.96 1154
10.02 1224
10.08 1117
10.14 992
10.2 883
10.26 769
10.32 729
10.38 737
10.44 699
10.5 750
10.56 712
10.62 684
10.68 642
10.74 708
10.8 687
10.86 650
10.92 702
10.98 735
11.04 637
11.1 706
11.16 639
11.22 669
11.28 693
11.34 701
11.4 698
11.46 687
11.52 675
11.58 700
11.64 705
11.7 681
11.76 643
11.82 694
11.88 713
11.94 693
12 671
12.06 678
12.12 688
12.18 668
12.24 685
12.3 682
12.36 720
12.42 689
12.48 715
12.54 744
12.6 740
12.66 853
12.72 747
12.78 721
12.84 694
12.9 720
12.96 690
13.02 718
13.08 751
13.14 735
13.2 707
13.26 726
13.32 723
13.38 783
13.44 684
13.5 690
13.56 738
13.62 709
13.68 709
13.74 709
13.8 718
13.86 693
13.92 709
13.98 739
14.04 781
14.1 677
14.16 722
14.22 743
14.28 732
14.34 673
14.4 748
14.46 708
14.52 752
14.58 772
14.64 716
14.7 744
14.76 723
14.82 736
14.88 695
14.94 773
15 732
15.06 768
15.12 783
15.18 790
15.24 772
15.3 801
15.36 777
15.42 801
15.48 780
15.54 756
15.6 868
15.66 759
15.72 763
15.78 822
15.84 796
15.9 789
15.96 799
16.02 793
16.08 872
16.14 866
16.2 792
16.26 852
16.32 859
16.38 826
16.44 848
16.5 877
16.56 889
16.62 915
16.68 900
16.74 901
16.8 904
16.86 1026
16.92 1111
16.98 1445
17.04 1554
17.1 1441
17.16 1108
17.22 1017
17.28 971
17.34 965
17.4 989
17.46 949
17.52 984
17.58 987
17.64 1040
17.7 1023
17.76 1059
17.82 1056
17.88 1055
17.94 1053
18 1079
18.06 1050
18.12 1122
18.18 1101
18.24 1122
18.3 1119
18.36 1080
18.42 1078
18.48 1145
18.54 1195
18.6 1171
18.66 1184
18.72 1166
18.78 1179
18.84 1213
18.9 1192
18.96 1127
19.02 1219
19.08 1298
19.14 1201
19.2 1225
19.26 1259
19.32 1242
19.38 1222
19.44 1224
19.5 1249
19.56 1309
19.62 1334
19.68 1370
19.74 1373
19.8 1455
19.86 1414
19.92 1397
19.98 1424
20 1517

File: 35-3.ASC
3 2664
3.06 2166
3.12 2049
3.18 1973
3.24 1852
3.3 1817
3.36 1707
3.42 1620
3.48 1596
3.54 1526
3.6 1456
3.66 1400
3.72 1416
3.78 1364
3.84 1320
3.9 1259
3.96 1252
4.02 1248
4.08 1215
4.14 1208
4.2 1106
4.26 1064
4.32 1062
4.38 1064
4.44 1056
4.5 1064
4.56 998
4.62 1025
4.68 1046
4.74 970
4.8 1024
4.86 953
4.92 993
4.98 1006
5.04 1044
5.1 1050
5.16 1073
5.22 1154
5.28 1243
5.34 1438
5.4 1710
5.46 2142
5.52 1883
5.58 1278
5.64 1174
5.7 1094
5.76 983
5.82 926
5.88 919
5.94 830
6 778
6.06 859
6.12 793
6.18 734
6.24 758
6.3 734
6.36 759
6.42 712
6.48 794
6.54 730
6.6 748
6.66 725
6.72 725
6.78 670
6.84 721
6.9 696
6.96 699
7.02 682
7.08 711
7.14 655
7.2 686
7.26 650
7.32 685
7.38 656
7.44 594
7.5 635
7.56 695
7.62 652
7.68 608
7.74 632
7.8 625
7.86 625
7.92 641
7.98 612
8.04 631
8.1 622
8.16 649
8.22 612
8.28 619
8.34 627
8.4 599
8.46 660
8.52 587
8.58 621
8.64 608
8.7 624
8.76 596
8.82 587
8.88 621
8.94 602
9 587
9.06 636
9.12 654
9.18 656
9.24 714
9.3 844
9.36 1021
9.42 1075
9.48 765
9.54 620
9.6 675
9.66 636
9.72 629
9.78 615
9.84 595
9.9 580
9.96 588
10.02 569
10.08 625
10.14 604
10.2 606
10.26 578
10.32 600
10.38 576
10.44 590
10.5 549
10.56 645
10.62 647
10.68 627
10.74 693
10.8 827
10.86 839
10.92 704
10.98 686
11.04 648
11.1 630
11.16 582
11.22 567
11.28 590
11.34 564
11.4 557
11.46 551
11.52 562
11.58 642
11.64 616
11.7 588
11.76 535
11.82 553
11.88 567
11.94 583
12 574
12.06 585
12.12 584
12.18 608
12.24 616
12.3 583
12.36 617
12.42 579
12.48 611
12.54 607
12.6 566
12.66 606
12.72 633
12.78 576
12.84 599
12.9 566
12.96 562
13.02 636
13.08 563
13.14 613
13.2 586
13.26 636
13.32 617
13.38 649
13.44 601
13.5 601
13.56 608
13.62 636
13.68 606
13.74 637
13.8 656
13.86 648
13.92 663
13.98 668
14.04 660
14.1 685
14.16 669
14.22 649
14.28 633
14.34 699
14.4 657
14.46 700
14.52 710
14.58 697
14.64 702
14.7 704
14.76 645
14.82 680
14.88 659
14.94 704
15 670
15.06 699
15.12 704
15.18 671
15.24 700
15.3 717
15.36 721
15.42 740
15.48 747
15.54 728
15.6 750
15.66 740
15.72 746
15.78 762
15.84 725
15.9 738
15.96 744
16.02 741
16.08 800
16.14 801
16.2 820
16.26 811
16.32 811
16.38 827
16.44 866
16.5 841
16.56 784
16.62 872
16.68 809
16.74 842
16.8 873
16.86 909
16.92 998
16.98 1149
17.04 1503
17.1 1356
17.16 1040
17.22 876
17.28 924
17.34 948
17.4 950
17.46 939
17.52 929
17.58 932
17.64 951
17.7 1044
17.76 952
17.82 967
17.88 966
17.94 1002
18 1001
18.06 966
18.12 1054
18.18 1010
18.24 1040
18.3 1089
18.36 1090
18.42 1041
18.48 1033
18.54 1084
18.6 1125
18.66 1142
18.72 1145
18.78 1158
18.84 1184
18.9 1127
18.96 1178
19.02 1137
19.08 1182
19.14 1143
19.2 1148
19.26 1146
19.32 1168
19.38 1277
19.44 1306
19.5 1322
19.56 1300
19.62 1335
19.68 1268
19.74 1309
19.8 1270
19.86 1269
19.92 1281
19.98 1267
20 1370

File: 35-8-1.ASC
3 3095
3.06 2596
3.12 2288
3.18 2181
3.24 2121
3.3 2102
3.36 1966
3.42 1928
3.48 1788
3.54 1765
3.6 1692
3.66 1645
3.72 1600
3.78 1492
3.84 1419
3.9 1466
3.96 1341
4.02 1347
4.08 1366
4.14 1237
4.2 1263
4.26 1125
4.32 1128
4.38 1202
4.44 1093
4.5 1185
4.56 1068
4.62 1130
4.68 1109
4.74 1090
4.8 1126
4.86 1103
4.92 1066
4.98 1204
5.04 1185
5.1 1347
5.16 1480
5.22 1611
5.28 1925
5.34 2360
5.4 3357
5.46 3971
5.52 2620
5.58 2070
5.64 1779
5.7 1621
5.76 1464
5.82 1345
5.88 1173
5.94 1073
6 927
6.06 905
6.12 839
6.18 863
6.24 774
6.3 815
6.36 807
6.42 781
6.48 802
6.54 797
6.6 792
6.66 787
6.72 780
6.78 716
6.84 771
6.9 771
6.96 730
7.02 706
7.08 747
7.14 703
7.2 669
7.26 687
7.32 699
7.38 731
7.44 666
7.5 696
7.56 675
7.62 667
7.68 671
7.74 698
7.8 694
7.86 656
7.92 686
7.98 709
8.04 673
8.1 690
8.16 707
8.22 669
8.28 695
8.34 695
8.4 685
8.46 656
8.52 639
8.58 624
8.64 688
8.7 659
8.76 717
8.82 665
8.88 634
8.94 710
9 703
9.06 765
9.12 787
9.18 855
9.24 1001
9.3 1241
9.36 1602
9.42 1097
9.48 887
9.54 725
9.6 731
9.66 687
9.72 702
9.78 665
9.84 682
9.9 736
9.96 681
10.02 710
10.08 678
10.14 693
10.2 691
10.26 691
10.32 733
10.38 716
10.44 694
10.5 676
10.56 779
10.62 777
10.68 823
10.74 979
10.8 1155
10.86 1042
10.92 996
10.98 854
11.04 836
11.1 762
11.16 688
11.22 709
11.28 687
11.34 645
11.4 723
11.46 720
11.52 714
11.58 666
11.64 681
11.7 646
11.76 704
11.82 683
11.88 756
11.94 702
12 736
12.06 692
12.12 698
12.18 708
12.24 780
12.3 781
12.36 734
12.42 721
12.48 718
12.54 694
12.6 722
12.66 748
12.72 708
12.78 754
12.84 740
12.9 755
12.96 721
13.02 739
13.08 687
13.14 707
13.2 739
13.26 784
13.32 767
13.38 742
13.44 758
13.5 771
13.56 708
13.62 806
13.68 702
13.74 786
13.8 743
13.86 804
13.92 812
13.98 791
14.04 782
14.1 811
14.16 809
14.22 831
14.28 903
14.34 824
14.4 880
14.46 790
14.52 828
14.58 831
14.64 823
14.7 842
14.76 855
14.82 875
14.88 864
14.94 847
15 895
15.06 858
15.12 855
15.18 868
15.24 875
15.3 862
15.36 931
15.42 856
15.48 949
15.54 914
15.6 926
15.66 914
15.72 973
15.78 918
15.84 965
15.9 942
15.96 955
16.02 1006
16.08 1055
16.14 1039
16.2 1007
16.26 984
16.32 1029
16.38 1107
16.44 1029
16.5 1015
16.56 1063
16.62 1126
16.68 1089
16.74 1111
16.8 1156
16.86 1165
16.92 1230
16.98 1389
17.04 1451
17.1 1208
17.16 1178
17.22 1190
17.28 1184
17.34 1291
17.4 1238
17.46 1234
17.52 1163
17.58 1280
17.64 1231
17.7 1243
17.76 1282
17.82 1269
17.88 1243
17.94 1317
18 1233
18.06 1283
18.12 1289
18.18 1357
18.24 1395
18.3 1414
18.36 1415
18.42 1358
18.48 1401
18.54 1424
18.6 1408
18.66 1489
18.72 1496
18.78 1499
18.84 1509
18.9 1513
18.96 1434
19.02 1533
19.08 1555
19.14 1608
19.2 1569
19.26 1640
19.32 1567
19.38 1666
19.44 1690
19.5 1787
19.56 1767
19.62 1793
19.68 1680
19.74 1666
19.8 1717
19.86 1647
19.92 1658
19.98 1759
20 1732

File: 35-9.ASC
3 3040
3.06 2685
3.12 2388
3.18 2252
3.24 2081
3.3 2080
3.36 1985
3.42 1867
3.48 1847
3.54 1830
3.6 1714
3.66 1659
3.72 1617
3.78 1630
3.84 1476
3.9 1506
3.96 1433
4.02 1370
4.08 1239
4.14 1257
4.2 1239
4.26 1169
4.32 1188
4.38 1148
4.44 1131
4.5 1048
4.56 1053
4.62 1039
4.68 1075
4.74 1088
4.8 970
4.86 1056
4.92 1011
4.98 1092
5.04 1011
5.1 1118
5.16 1140
5.22 1279
5.28 1407
5.34 1567
5.4 2125
5.46 2386
5.52 1752
5.58 1276
5.64 1090
5.7 975
5.76 881
5.82 850
5.88 821
5.94 806
6 765
6.06 797
6.12 740
6.18 770
6.24 710
6.3 709
6.36 674
6.42 695
6.48 755
6.54 692
6.6 710
6.66 669
6.72 676
6.78 687
6.84 683
6.9 677
6.96 702
7.02 656
7.08 661
7.14 636
7.2 681
7.26 625
7.32 631
7.38 637
7.44 628
7.5 650
7.56 625
7.62 627
7.68 667
7.74 654
7.8 603
7.86 626
7.92 590
7.98 620
8.04 582
8.1 620
8.16 632
8.22 604
8.28 608
8.34 658
8.4 644
8.46 572
8.52 611
8.58 611
8.64 596
8.7 630
8.76 567
8.82 601
8.88 633
8.94 593
9 591
9.06 653
9.12 659
9.18 664
9.24 773
9.3 933
9.36 1103
9.42 925
9.48 747
9.54 637
9.6 652
9.66 621
9.72 599
9.78 612
9.84 610
9.9 592
9.96 563
10.02 566
10.08 589
10.14 547
10.2 639
10.26 561
10.32 585
10.38 572
10.44 569
10.5 625
10.56 653
10.62 632
10.68 665
10.74 722
10.8 827
10.86 760
10.92 698
10.98 655
11.04 601
11.1 615
11.16 654
11.22 609
11.28 564
11.34 575
11.4 571
11.46 577
11.52 555
11.58 592
11.64 549
11.7 613
11.76 582
11.82 572
11.88 562
11.94 589
12 569
12.06 596
12.12 598
12.18 598
12.24 655
12.3 656
12.36 589
12.42 593
12.48 597
12.54 641
12.6 577
12.66 553
12.72 595
12.78 587
12.84 596
12.9 632
12.96 608
13.02 598
13.08 599
13.14 621
13.2 607
13.26 651
13.32 637
13.38 654
13.44 618
13.5 665
13.56 634
13.62 612
13.68 646
13.74 633
13.8 672
13.86 672
13.92 623
13.98 626
14.04 676
14.1 657
14.16 688
14.22 639
14.28 693
14.34 685
14.4 706
14.46 677
14.52 677
14.58 717
14.64 692
14.7 687
14.76 655
14.82 709
14.88 728
14.94 682
15 675
15.06 700
15.12 700
15.18 752
15.24 659
15.3 745
15.36 735
15.42 771
15.48 710
15.54 734
15.6 764
15.66 795
15.72 792
15.78 763
15.84 787
15.9 784
15.96 769
16.02 781
16.08 808
16.14 795
16.2 865
16.26 787
16.32 789
16.38 810
16.44 816
16.5 842
16.56 835
16.62 881
16.68 851
16.74 868
16.8 890
16.86 942
16.92 1044
16.98 1256
17.04 1392
17.1 1139
17.16 990
17.22 975
17.28 963
17.34 897
17.4 950
17.46 961
17.52 967
17.58 986
17.64 1016
17.7 1018
17.76 981
17.82 984
17.88 1003
17.94 938
18 1011
18.06 1034
18.12 1009
18.18 1016
18.24 1044
18.3 1027
18.36 1021
18.42 1040
18.48 1096
18.54 1142
18.6 1085
18.66 1097
18.72 1095
18.78 1121
18.84 1110
18.9 1161
18.96 1154
19.02 1116
19.08 1122
19.14 1156
19.2 1199
19.26 1264
19.32 1211
19.38 1321
19.44 1299
19.5 1339
19.56 1324
19.62 1290
19.68 1276
19.74 1337
19.8 1248
19.86 1304
19.92 1325
19.98 1278
20 1315

File: 35-10.ASC
3 2357
3.06 2045
3.12 1778
3.18 1739
3.24 1610
3.3 1504
3.36 1500
3.42 1441
3.48 1424
3.54 1401
3.6 1354
3.66 1294
3.72 1318
3.78 1242
3.84 1228
3.9 1294
3.96 1240
4.02 1157
4.08 1107
4.14 1077
4.2 1132
4.26 1107
4.32 1068
4.38 1091
4.44 1061
4.5 1036
4.56 985
4.62 1068
4.68 960
4.74 981
4.8 962
4.86 1015
4.92 937
4.98 956
5.04 928
5.1 984
5.16 986
5.22 944
5.28 901
5.34 999
5.4 877
5.46 968
5.52 928
5.58 923
5.64 849
5.7 928
5.76 835
5.82 854
5.88 849
5.94 842
6 763
6.06 784
6.12 753
6.18 817
6.24 786
6.3 745
6.36 789
6.42 769
6.48 741
6.54 702
6.6 745
6.66 745
6.72 793
6.78 746
6.84 757
6.9 702
6.96 717
7.02 728
7.08 680
7.14 699
7.2 704
7.26 740
7.32 658
7.38 669
7.44 718
7.5 709
7.56 686
7.62 718
7.68 661
7.74 688
7.8 665
7.86 703
7.92 731
7.98 643
8.04 667
8.1 645
8.16 648
8.22 635
8.28 666
8.34 681
8.4 629
8.46 613
8.52 641
8.58 634
8.64 641
8.7 624
8.76 635
8.82 647
8.88 569
8.94 620
9 652
9.06 609
9.12 599
9.18 674
9.24 598
9.3 654
9.36 639
9.42 612
9.48 640
9.54 628
9.6 685
9.66 628
9.72 622
9.78 597
9.84 620
9.9 642
9.96 597
10.02 594
10.08 586
10.14 600
10.2 601
10.26 637
10.32 600
10.38 584
10.44 549
10.5 547
10.56 624
10.62 600
10.68 582
10.74 581
10.8 606
10.86 599
10.92 560
10.98 599
11.04 593
11.1 563
11.16 585
11.22 565
11.28 610
11.34 560
11.4 561
11.46 577
11.52 565
11.58 594
11.64 570
11.7 558
11.76 591
11.82 586
11.88 572
11.94 568
12 564
12.06 566
12.12 562
12.18 555
12.24 573
12.3 605
12.36 596
12.42 569
12.48 597
12.54 627
12.6 599
12.66 609
12.72 607
12.78 577
12.84 612
12.9 609
12.96 568
13.02 638
13.08 601
13.14 615
13.2 597
13.26 642
13.32 621
13.38 606
13.44 584
13.5 652
13.56 570
13.62 633
13.68 617
13.74 591
13.8 644
13.86 610
13.92 596
13.98 624
14.04 638
14.1 615
14.16 665
14.22 613
14.28 688
14.34 663
14.4 640
14.46 628
14.52 668
14.58 643
14.64 640
14.7 659
14.76 677
14.82 711
14.88 693
14.94 683
15 677
15.06 630
15.12 689
15.18 674
15.24 731
15.3 761
15.36 718
15.42 724
15.48 742
15.54 721
15.6 710
15.66 698
15.72 710
15.78 778
15.84 734
15.9 730
15.96 777
16.02 773
16.08 761
16.14 833
16.2 735
16.26 829
16.32 783
16.38 755
16.44 788
16.5 809
16.56 788
16.62 841
16.68 892
16.74 857
16.8 887
16.86 935
16.92 1099
16.98 1332
17.04 1501
17.1 1307
17.16 955
17.22 942
17.28 869
17.34 941
17.4 950
17.46 874
17.52 896
17.58 912
17.64 895
17.7 889
17.76 947
17.82 874
17.88 934
17.94 1040
18 978
18.06 938
18.12 1000
18.18 1019
18.24 1054
18.3 975
18.36 1037
18.42 966
18.48 1017
18.54 1014
18.6 1046
18.66 1100
18.72 1051
18.78 1062
18.84 1043
18.9 1130
18.96 1029
19.02 1055
19.08 1152
19.14 1087
19.2 1189
19.26 1158
19.32 1141
19.38 1142
19.44 1178
19.5 1137
19.56 1236
19.62 1205
19.68 1181
19.74 1171
19.8 1284
19.86 1236
19.92 1258
19.98 1260
20 1244