Folder: CPC-code/xrd-UiO-67/pxrddata (part 14)

File: 37-2.ASC
3 3146
3.06 2642
3.12 2453
3.18 2295
3.24 2273
3.3 2198
3.36 2137
3.42 2195
3.48 2110
3.54 2075
3.6 2066
3.66 2007
3.72 1997
3.78 1834
3.84 1874
3.9 1807
3.96 1792
4.02 1812
4.08 1747
4.14 1737
4.2 1804
4.26 1725
4.32 1663
4.38 1720
4.44 1617
4.5 1620
4.56 1617
4.62 1629
4.68 1591
4.74 1523
4.8 1529
4.86 1624
4.92 1576
4.98 1579
5.04 1555
5.1 1584
5.16 1612
5.22 1674
5.28 1766
5.34 2062
5.4 2611
5.46 1759
5.52 1431
5.58 1276
5.64 1213
5.7 1219
5.76 1117
5.82 1087
5.88 1018
5.94 1050
6 995
6.06 930
6.12 986
6.18 977
6.24 926
6.3 878
6.36 873
6.42 845
6.48 888
6.54 779
6.6 839
6.66 836
6.72 815
6.78 752
6.84 760
6.9 734
6.96 799
7.02 730
7.08 747
7.14 727
7.2 720
7.26 741
7.32 755
7.38 744
7.44 740
7.5 724
7.56 721
7.62 751
7.68 655
7.74 695
7.8 609
7.86 671
7.92 719
7.98 662
8.04 637
8.1 662
8.16 700
8.22 690
8.28 718
8.34 665
8.4 670
8.46 642
8.52 666
8.58 671
8.64 635
8.7 670
8.76 615
8.82 650
8.88 639
8.94 664
9 664
9.06 679
9.12 725
9.18 730
9.24 797
9.3 957
9.36 878
9.42 709
9.48 663
9.54 647
9.6 607
9.66 663
9.72 647
9.78 626
9.84 559
9.9 605
9.96 595
10.02 619
10.08 597
10.14 651
10.2 628
10.26 572
10.32 582
10.38 594
10.44 589
10.5 631
10.56 635
10.62 665
10.68 686
10.74 756
10.8 699
10.86 673
10.92 583
10.98 604
11.04 603
11.1 546
11.16 590
11.22 593
11.28 542
11.34 535
11.4 559
11.46 558
11.52 562
11.58 564
11.64 559
11.7 587
11.76 567
11.82 577
11.88 587
11.94 575
12 563
12.06 567
12.12 584
12.18 544
12.24 599
12.3 578
12.36 571
12.42 601
12.48 612
12.54 597
12.6 535
12.66 567
12.72 563
12.78 591
12.84 545
12.9 604
12.96 588
13.02 573
13.08 574
13.14 562
13.2 573
13.26 549
13.32 593
13.38 556
13.44 596
13.5 571
13.56 613
13.62 554
13.68 591
13.74 605
13.8 610
13.86 608
13.92 634
13.98 595
14.04 635
14.1 629
14.16 597
14.22 626
14.28 616
14.34 629
14.4 624
14.46 606
14.52 622
14.58 608
14.64 587
14.7 643
14.76 627
14.82 638
14.88 610
14.94 615
15 651
15.06 611
15.12 639
15.18 593
15.24 672
15.3 673
15.36 633
15.42 659
15.48 645
15.54 653
15.6 667
15.66 680
15.72 664
15.78 702
15.84 681
15.9 674
15.96 696
16.02 676
16.08 713
16.14 734
16.2 754
16.26 689
16.32 749
16.38 712
16.44 700
16.5 734
16.56 730
16.62 684
16.68 725
16.74 775
16.8 793
16.86 873
16.92 916
16.98 2163
17.04 1695
17.1 874
17.16 814
17.22 790
17.28 876
17.34 770
17.4 769
17.46 844
17.52 778
17.58 859
17.64 815
17.7 824
17.76 861
17.82 835
17.88 811
17.94 846
18 827
18.06 832
18.12 810
18.18 816
18.24 850
18.3 802
18.36 870
18.42 829
18.48 887
18.54 828
18.6 882
18.66 951
18.72 980
18.78 894
18.84 929
18.9 903
18.96 902
19.02 1009
19.08 943
19.14 935
19.2 959
19.26 1002
19.32 977
19.38 1026
19.44 1072
19.5 1038
19.56 967
19.62 991
19.68 1019
19.74 1021
19.8 978
19.86 1009
19.92 1048
19.98 968
20 1003

File: 37-5.ASC
3 2483
3.06 1998
3.12 1802
3.18 1705
3.24 1700
3.3 1645
3.36 1590
3.42 1556
3.48 1497
3.54 1490
3.6 1412
3.66 1403
3.72 1332
3.78 1354
3.84 1305
3.9 1264
3.96 1284
4.02 1211
4.08 1188
4.14 1186
4.2 1168
4.26 1124
4.32 1100
4.38 1094
4.44 1070
4.5 1000
4.56 1017
4.62 1040
4.68 1016
4.74 1006
4.8 973
4.86 937
4.92 884
4.98 966
5.04 879
5.1 943
5.16 865
5.22 869
5.28 855
5.34 812
5.4 876
5.46 854
5.52 798
5.58 815
5.64 776
5.7 763
5.76 806
5.82 824
5.88 768
5.94 743
6 733
6.06 742
6.12 724
6.18 641
6.24 740
6.3 691
6.36 708
6.42 708
6.48 710
6.54 695
6.6 666
6.66 664
6.72 655
6.78 725
6.84 621
6.9 632
6.96 640
7.02 697
7.08 649
7.14 656
7.2 663
7.26 653
7.32 621
7.38 647
7.44 672
7.5 639
7.56 600
7.62 630
7.68 571
7.74 592
7.8 625
7.86 645
7.92 647
7.98 591
8.04 584
8.1 584
8.16 614
8.22 638
8.28 582
8.34 595
8.4 615
8.46 595
8.52 584
8.58 561
8.64 576
8.7 595
8.76 555
8.82 589
8.88 615
8.94 603
9 595
9.06 556
9.12 568
9.18 574
9.24 549
9.3 569
9.36 582
9.42 559
9.48 610
9.54 595
9.6 569
9.66 597
9.72 533
9.78 570
9.84 554
9.9 579
9.96 581
10.02 568
10.08 549
10.14 555
10.2 522
10.26 570
10.32 553
10.38 572
10.44 526
10.5 533
10.56 498
10.62 573
10.68 538
10.74 493
10.8 515
10.86 535
10.92 555
10.98 545
11.04 546
11.1 529
11.16 573
11.22 534
11.28 567
11.34 553
11.4 529
11.46 520
11.52 519
11.58 544
11.64 532
11.7 487
11.76 507
11.82 546
11.88 539
11.94 544
12 504
12.06 541
12.12 531
12.18 559
12.24 534
12.3 527
12.36 511
12.42 527
12.48 556
12.54 485
12.6 472
12.66 548
12.72 546
12.78 479
12.84 551
12.9 539
12.96 525
13.02 563
13.08 557
13.14 573
13.2 574
13.26 541
13.32 540
13.38 518
13.44 557
13.5 550
13.56 558
13.62 554
13.68 539
13.74 549
13.8 530
13.86 597
13.92 567
13.98 551
14.04 554
14.1 535
14.16 577
14.22 608
14.28 613
14.34 604
14.4 549
14.46 576
14.52 593
14.58 616
14.64 586
14.7 558
14.76 607
14.82 607
14.88 638
14.94 637
15 669
15.06 655
15.12 651
15.18 616
15.24 601
15.3 616
15.36 580
15.42 625
15.48 673
15.54 619
15.6 652
15.66 673
15.72 660
15.78 670
15.84 636
15.9 638
15.96 653
16.02 642
16.08 674
16.14 632
16.2 682
16.26 651
16.32 653
16.38 694
16.44 685
16.5 685
16.56 718
16.62 716
16.68 738
16.74 858
16.8 892
16.86 1039
16.92 1399
16.98 1693
17.04 1181
17.1 896
17.16 742
17.22 789
17.28 766
17.34 768
17.4 795
17.46 748
17.52 748
17.58 761
17.64 796
17.7 767
17.76 772
17.82 824
17.88 785
17.94 805
18 822
18.06 840
18.12 791
18.18 817
18.24 845
18.3 867
18.36 864
18.42 851
18.48 875
18.54 875
18.6 901
18.66 884
18.72 891
18.78 899
18.84 898
18.9 939
18.96 871
19.02 885
19.08 897
19.14 931
19.2 910
19.26 970
19.32 927
19.38 940
19.44 919
19.5 916
19.56 961
19.62 953
19.68 983
19.74 935
19.8 972
19.86 1004
19.92 1023
19.98 979
20 1021

File: 37-6.ASC
3 3411
3.06 2992
3.12 2720
3.18 2608
3.24 2575
3.3 2587
3.36 2457
3.42 2371
3.48 2304
3.54 2312
3.6 2347
3.66 2317
3.72 2268
3.78 2285
3.84 2257
3.9 2214
3.96 2163
4.02 2124
4.08 2227
4.14 2070
4.2 2206
4.26 2133
4.32 2143
4.38 2107
4.44 2052
4.5 2040
4.56 1959
4.62 2018
4.68 2015
4.74 1963
4.8 1966
4.86 2000
4.92 1905
4.98 1943
5.04 1962
5.1 1866
5.16 1791
5.22 1767
5.28 1767
5.34 1650
5.4 1518
5.46 1494
5.52 1467
5.58 1407
5.64 1414
5.7 1407
5.76 1287
5.82 1269
5.88 1271
5.94 1223
6 1199
6.06 1162
6.12 1116
6.18 1056
6.24 1084
6.3 1007
6.36 1024
6.42 941
6.48 982
6.54 976
6.6 945
6.66 926
6.72 950
6.78 931
6.84 890
6.9 891
6.96 866
7.02 879
7.08 838
7.14 886
7.2 877
7.26 866
7.32 836
7.38 760
7.44 789
7.5 813
7.56 829
7.62 820
7.68 801
7.74 789
7.8 793
7.86 792
7.92 735
7.98 750
8.04 741
8.1 753
8.16 761
8.22 776
8.28 739
8.34 758
8.4 709
8.46 725
8.52 730
8.58 738
8.64 703
8.7 746
8.76 738
8.82 690
8.88 732
8.94 709
9 724
9.06 729
9.12 748
9.18 735
9.24 678
9.3 710
9.36 728
9.42 690
9.48 733
9.54 723
9.6 711
9.66 705
9.72 736
9.78 730
9.84 689
9.9 711
9.96 694
10.02 703
10.08 684
10.14 679
10.2 660
10.26 648
10.32 657
10.38 641
10.44 627
10.5 642
10.56 608
10.62 626
10.68 619
10.74 613
10.8 644
10.86 670
10.92 603
10.98 636
11.04 650
11.1 639
11.16 669
11.22 615
11.28 618
11.34 610
11.4 617
11.46 639
11.52 613
11.58 613
11.64 623
11.7 614
11.76 577
11.82 667
11.88 637
11.94 632
12 604
12.06 647
12.12 619
12.18 639
12.24 628
12.3 601
12.36 626
12.42 612
12.48 621
12.54 604
12.6 624
12.66 644
12.72 634
12.78 638
12.84 639
12.9 619
12.96 602
13.02 626
13.08 610
13.14 617
13.2 661
13.26 690
13.32 664
13.38 619
13.44 679
13.5 642
13.56 622
13.62 629
13.68 625
13.74 640
13.8 666
13.86 645
13.92 648
13.98 620
14.04 691
14.1 659
14.16 650
14.22 658
14.28 650
14.34 654
14.4 628
14.46 632
14.52 641
14.58 702
14.64 674
14.7 692
14.76 724
14.82 711
14.88 662
14.94 702
15 679
15.06 731
15.12 684
15.18 708
15.24 718
15.3 709
15.36 786
15.42 722
15.48 721
15.54 686
15.6 673
15.66 766
15.72 770
15.78 758
15.84 739
15.9 722
15.96 820
16.02 716
16.08 741
16.14 766
16.2 740
16.26 782
16.32 781
16.38 813
16.44 838
16.5 800
16.56 854
16.62 944
16.68 966
16.74 1057
16.8 1230
16.86 1512
16.92 2452
16.98 6118
17.04 5577
17.1 1312
17.16 1001
17.22 951
17.28 865
17.34 874
17.4 903
17.46 885
17.52 907
17.58 970
17.64 873
17.7 897
17.76 920
17.82 960
17.88 914
17.94 891
18 942
18.06 947
18.12 925
18.18 959
18.24 1001
18.3 1029
18.36 955
18.42 1006
18.48 930
18.54 970
18.6 1009
18.66 1044
18.72 993
18.78 1015
18.84 982
18.9 1012
18.96 1013
19.02 1051
19.08 1030
19.14 1040
19.2 1079
19.26 1089
19.32 1129
19.38 998
19.44 1077
19.5 1043
19.56 1074
19.62 1123
19.68 1102
19.74 1159
19.8 1063
19.86 1105
19.92 1153
19.98 1107
20 1137

File: 37-7.ASC
3 2640
3.06 2191
3.12 1853
3.18 1833
3.24 1730
3.3 1685
3.36 1705
3.42 1684
3.48 1633
3.54 1492
3.6 1475
3.66 1417
3.72 1416
3.78 1480
3.84 1392
3.9 1419
3.96 1372
4.02 1279
4.08 1276
4.14 1244
4.2 1236
4.26 1220
4.32 1123
4.38 1144
4.44 1129
4.5 1138
4.56 1054
4.62 1082
4.68 1053
4.74 1048
4.8 1036
4.86 1011
4.92 952
4.98 894
5.04 980
5.1 938
5.16 875
5.22 907
5.28 917
5.34 908
5.4 856
5.46 920
5.52 871
5.58 861
5.64 850
5.7 840
5.76 852
5.82 834
5.88 775
5.94 783
6 790
6.06 785
6.12 726
6.18 755
6.24 759
6.3 766
6.36 774
6.42 725
6.48 794
6.54 796
6.6 753
6.66 755
6.72 723
6.78 671
6.84 731
6.9 720
6.96 716
7.02 665
7.08 717
7.14 693
7.2 726
7.26 680
7.32 677
7.38 680
7.44 715
7.5 682
7.56 694
7.62 660
7.68 698
7.74 636
7.8 651
7.86 667
7.92 639
7.98 688
8.04 675
8.1 684
8.16 658
8.22 659
8.28 668
8.34 653
8.4 634
8.46 656
8.52 612
8.58 650
8.64 609
8.7 648
8.76 622
8.82 646
8.88 607
8.94 625
9 590
9.06 629
9.12 633
9.18 602
9.24 626
9.3 621
9.36 631
9.42 591
9.48 665
9.54 626
9.6 585
9.66 567
9.72 618
9.78 619
9.84 590
9.9 621
9.96 583
10.02 618
10.08 518
10.14 598
10.2 589
10.26 592
10.32 596
10.38 569
10.44 588
10.5 606
10.56 565
10.62 628
10.68 571
10.74 562
10.8 546
10.86 583
10.92 590
10.98 603
11.04 571
11.1 581
11.16 536
11.22 567
11.28 599
11.34 563
11.4 585
11.46 567
11.52 534
11.58 537
11.64 573
11.7 591
11.76 595
11.82 596
11.88 593
11.94 560
12 559
12.06 599
12.12 538
12.18 632
12.24 587
12.3 559
12.36 560
12.42 594
12.48 581
12.54 625
12.6 578
12.66 588
12.72 609
12.78 552
12.84 568
12.9 587
12.96 585
13.02 609
13.08 640
13.14 557
13.2 616
13.26 617
13.32 610
13.38 608
13.44 591
13.5 622
13.56 644
13.62 578
13.68 609
13.74 596
13.8 654
13.86 630
13.92 630
13.98 634
14.04 621
14.1 631
14.16 658
14.22 640
14.28 614
14.34 633
14.4 646
14.46 620
14.52 616
14.58 625
14.64 680
14.7 656
14.76 692
14.82 665
14.88 667
14.94 653
15 678
15.06 688
15.12 679
15.18 691
15.24 692
15.3 723
15.36 748
15.42 683
15.48 711
15.54 730
15.6 689
15.66 675
15.72 764
15.78 746
15.84 760
15.9 745
15.96 728
16.02 734
16.08 740
16.14 757
16.2 753
16.26 769
16.32 784
16.38 753
16.44 804
16.5 836
16.56 802
16.62 863
16.68 851
16.74 870
16.8 916
16.86 1084
16.92 1392
16.98 1732
17.04 1403
17.1 1011
17.16 869
17.22 898
17.28 866
17.34 868
17.4 866
17.46 911
17.52 898
17.58 912
17.64 958
17.7 950
17.76 886
17.82 954
17.88 875
17.94 942
18 903
18.06 943
18.12 900
18.18 939
18.24 962
18.3 956
18.36 951
18.42 989
18.48 990
18.54 982
18.6 984
18.66 1022
18.72 1074
18.78 977
18.84 1023
18.9 1018
18.96 1083
19.02 1100
19.08 1054
19.14 1087
19.2 1084
19.26 1081
19.32 1107
19.38 1054
19.44 1078
19.5 1119
19.56 1140
19.62 1144
19.68 1134
19.74 1185
19.8 1196
19.86 1157
19.92 1210
19.98 1194
20 1188

File: 37-8.ASC
3 3160
3.06 2594
3.12 2370
3.18 2268
3.24 2208
3.3 2113
3.36 2028
3.42 1927
3.48 1874
3.54 1811
3.6 1741
3.66 1734
3.72 1666
3.78 1649
3.84 1634
3.9 1603
3.96 1561
4.02 1524
4.08 1475
4.14 1496
4.2 1397
4.26 1481
4.32 1362
4.38 1318
4.44 1369
4.5 1296
4.56 1303
4.62 1312
4.68 1307
4.74 1221
4.8 1277
4.86 1282
4.92 1250
4.98 1261
5.04 1283
5.1 1296
5.16 1404
5.22 1395
5.28 1500
5.34 1803
5.4 2108
5.46 1460
5.52 1407
5.58 1357
5.64 1436
5.7 1465
5.76 1394
5.82 1109
5.88 989
5.94 948
6 902
6.06 856
6.12 857
6.18 813
6.24 783
6.3 765
6.36 782
6.42 754
6.48 781
6.54 795
6.6 748
6.66 754
6.72 775
6.78 720
6.84 739
6.9 710
6.96 748
7.02 712
7.08 726
7.14 684
7.2 710
7.26 632
7.32 676
7.38 687
7.44 675
7.5 687
7.56 608
7.62 661
7.68 662
7.74 659
7.8 678
7.86 662
7.92 654
7.98 664
8.04 644
8.1 647
8.16 627
8.22 652
8.28 648
8.34 605
8.4 635
8.46 609
8.52 639
8.58 605
8.64 641
8.7 659
8.76 629
8.82 610
8.88 621
8.94 628
9 663
9.06 675
9.12 686
9.18 783
9.24 767
9.3 1220
9.36 753
9.42 688
9.48 577
9.54 646
9.6 602
9.66 565
9.72 602
9.78 640
9.84 613
9.9 591
9.96 579
10.02 647
10.08 654
10.14 591
10.2 657
10.26 545
10.32 566
10.38 582
10.44 590
10.5 569
10.56 587
10.62 610
10.68 664
10.74 799
10.8 708
10.86 652
10.92 668
10.98 632
11.04 586
11.1 573
11.16 560
11.22 587
11.28 552
11.34 571
11.4 582
11.46 565
11.52 573
11.58 582
11.64 560
11.7 556
11.76 545
11.82 602
11.88 515
11.94 552
12 553
12.06 545
12.12 614
12.18 582
12.24 593
12.3 581
12.36 573
12.42 572
12.48 545
12.54 581
12.6 538
12.66 536
12.72 592
12.78 543
12.84 576
12.9 589
12.96 595
13.02 533
13.08 540
13.14 617
13.2 577
13.26 578
13.32 591
13.38 614
13.44 539
13.5 605
13.56 543
13.62 581
13.68 562
13.74 556
13.8 568
13.86 570
13.92 557
13.98 604
14.04 595
14.1 597
14.16 620
14.22 605
14.28 614
14.34 592
14.4 603
14.46 601
14.52 593
14.58 597
14.64 571
14.7 613
14.76 632
14.82 618
14.88 583
14.94 604
15 603
15.06 595
15.12 613
15.18 630
15.24 655
15.3 666
15.36 617
15.42 648
15.48 657
15.54 623
15.6 682
15.66 615
15.72 680
15.78 619
15.84 659
15.9 698
15.96 673
16.02 624
16.08 672
16.14 671
16.2 689
16.26 719
16.32 674
16.38 725
16.44 664
16.5 710
16.56 735
16.62 701
16.68 827
16.74 784
16.8 827
16.86 826
16.92 973
16.98 1073
17.04 719
17.1 709
17.16 751
17.22 795
17.28 770
17.34 781
17.4 785
17.46 799
17.52 817
17.58 863
17.64 763
17.7 787
17.76 802
17.82 783
17.88 818
17.94 794
18 799
18.06 818
18.12 807
18.18 874
18.24 874
18.3 831
18.36 835
18.42 817
18.48 879
18.54 892
18.6 895
18.66 927
18.72 867
18.78 946
18.84 946
18.9 907
18.96 946
19.02 985
19.08 969
19.14 959
19.2 930
19.26 921
19.32 968
19.38 1056
19.44 1048
19.5 1008
19.56 939
19.62 983
19.68 992
19.74 1026
19.8 1004
19.86 1012
19.92 987
19.98 959
20 1021

File: 37-9.ASC
3 2432
3.06 2008
3.12 1776
3.18 1741
3.24 1663
3.3 1613
3.36 1505
3.42 1518
3.48 1386
3.54 1399
3.6 1436
3.66 1299
3.72 1236
3.78 1193
3.84 1140
3.9 1188
3.96 1181
4.02 1157
4.08 1029
4.14 1006
4.2 1069
4.26 1047
4.32 974
4.38 923
4.44 951
4.5 916
4.56 914
4.62 880
4.68 822
4.74 818
4.8 812
4.86 828
4.92 794
4.98 816
5.04 810
5.1 747
5.16 780
5.22 741
5.28 731
5.34 725
5.4 693
5.46 724
5.52 736
5.58 695
5.64 676
5.7 680
5.76 659
5.82 665
5.88 679
5.94 668
6 670
6.06 630
6.12 679
6.18 672
6.24 625
6.3 628
6.36 671
6.42 616
6.48 652
6.54 692
6.6 620
6.66 610
6.72 584
6.78 651
6.84 605
6.9 578
6.96 591
7.02 561
7.08 588
7.14 555
7.2 561
7.26 638
7.32 599
7.38 577
7.44 563
7.5 575
7.56 584
7.62 549
7.68 557
7.74 591
7.8 601
7.86 572
7.92 570
7.98 572
8.04 583
8.1 583
8.16 534
8.22 537
8.28 546
8.34 539
8.4 531
8.46 567
8.52 575
8.58 579
8.64 578
8.7 596
8.76 632
8.82 611
8.88 679
8.94 795
9 1260
9.06 1280
9.12 586
9.18 581
9.24 509
9.3 526
9.36 525
9.42 542
9.48 493
9.54 524
9.6 549
9.66 550
9.72 540
9.78 511
9.84 496
9.9 519
9.96 591
10.02 498
10.08 483
10.14 506
10.2 483
10.26 488
10.32 468
10.38 462
10.44 519
10.5 472
10.56 477
10.62 495
10.68 487
10.74 480
10.8 484
10.86 462
10.92 463
10.98 497
11.04 448
11.1 486
11.16 453
11.22 478
11.28 449
11.34 469
11.4 459
11.46 466
11.52 428
11.58 444
11.64 517
11.7 491
11.76 447
11.82 472
11.88 458
11.94 487
12 470
12.06 451
12.12 454
12.18 471
12.24 474
12.3 500
12.36 524
12.42 461
12.48 458
12.54 448
12.6 473
12.66 446
12.72 503
12.78 509
12.84 471
12.9 489
12.96 476
13.02 435
13.08 508
13.14 490
13.2 479
13.26 540
13.32 462
13.38 505
13.44 479
13.5 477
13.56 490
13.62 464
13.68 511
13.74 515
13.8 516
13.86 433
13.92 483
13.98 544
14.04 500
14.1 467
14.16 485
14.22 435
14.28 500
14.34 494
14.4 466
14.46 499
14.52 507
14.58 499
14.64 506
14.7 484
14.76 514
14.82 519
14.88 493
14.94 512
15 483
15.06 462
15.12 515
15.18 509
15.24 534
15.3 569
15.36 548
15.42 570
15.48 538
15.54 557
15.6 569
15.66 571
15.72 550
15.78 586
15.84 559
15.9 535
15.96 555
16.02 600
16.08 583
16.14 563
16.2 556
16.26 593
16.32 611
16.38 602
16.44 557
16.5 613
16.56 626
16.62 665
16.68 646
16.74 746
16.8 868
16.86 1267
16.92 1617
16.98 1306
17.04 993
17.1 687
17.16 651
17.22 627
17.28 639
17.34 691
17.4 640
17.46 703
17.52 687
17.58 602
17.64 651
17.7 692
17.76 652
17.82 701
17.88 672
17.94 678
18 711
18.06 712
18.12 681
18.18 700
18.24 673
18.3 703
18.36 707
18.42 719
18.48 731
18.54 751
18.6 730
18.66 771
18.72 699
18.78 713
18.84 746
18.9 725
18.96 729
19.02 744
19.08 727
19.14 778
19.2 691
19.26 737
19.32 727
19.38 758
19.44 781
19.5 769
19.56 819
19.62 790
19.68 788
19.74 797
19.8 833
19.86 784
19.92 859
19.98 835
20 827

File: 37-10.ASC
3 2300
3.06 1895
3.12 1589
3.18 1615
3.24 1532
3.3 1501
3.36 1483
3.42 1396
3.48 1332
3.54 1347
3.6 1279
3.66 1296
3.72 1305
3.78 1210
3.84 1162
3.9 1139
3.96 1184
4.02 1096
4.08 1102
4.14 1062
4.2 1079
4.26 1064
4.32 992
4.38 1028
4.44 931
4.5 997
4.56 965
4.62 956
4.68 990
4.74 944
4.8 928
4.86 970
4.92 955
4.98 889
5.04 898
5.1 893
5.16 895
5.22 860
5.28 885
5.34 956
5.4 846
5.46 899
5.52 846
5.58 862
5.64 956
5.7 934
5.76 935
5.82 886
5.88 890
5.94 902
6 906
6.06 956
6.12 928
6.18 931
6.24 894
6.3 919
6.36 984
6.42 987
6.48 983
6.54 1005
6.6 1026
6.66 960
6.72 957
6.78 1017
6.84 891
6.9 917
6.96 879
7.02 940
7.08 935
7.14 905
7.2 989
7.26 966
7.32 910
7.38 957
7.44 974
7.5 998
7.56 1001
7.62 1074
7.68 1086
7.74 1151
7.8 1205
7.86 1335
7.92 1381
7.98 1325
8.04 1292
8.1 1345
8.16 1279
8.22 1355
8.28 1469
8.34 1608
8.4 1659
8.46 1800
8.52 1952
8.58 2116
8.64 2384
8.7 2830
8.76 3240
8.82 4046
8.88 4877
8.94 5765
9 6307
9.06 5827
9.12 4924
9.18 4331
9.24 3897
9.3 3729
9.36 3248
9.42 2864
9.48 2670
9.54 2617
9.6 2689
9.66 2962
9.72 3423
9.78 4148
9.84 5062
9.9 6598
9.96 8013
10.02 6247
10.08 3429
10.14 2285
10.2 1831
10.26 1635
10.32 1597
10.38 1455
10.44 1482
10.5 1491
10.56 1456
10.62 1494
10.68 1524
10.74 1545
10.8 1518
10.86 1528
10.92 1501
10.98 1508
11.04 1406
11.1 1311
11.16 1144
11.22 1143
11.28 1047
11.34 989
11.4 999
11.46 972
11.52 938
11.58 869
11.64 898
11.7 891
11.76 876
11.82 875
11.88 902
11.94 899
12 845
12.06 877
12.12 954
12.18 945
12.24 989
12.3 1052
12.36 1123
12.42 1217
12.48 1428
12.54 1657
12.6 2066
12.66 2512
12.72 2818
12.78 2204
12.84 1448
12.9 1166
12.96 1141
13.02 1001
13.08 994
13.14 964
13.2 929
13.26 936
13.32 968
13.38 937
13.44 932
13.5 965
13.56 919
13.62 910
13.68 928
13.74 915
13.8 807
13.86 859
13.92 816
13.98 857
14.04 892
14.1 864
14.16 913
14.22 962
14.28 969
14.34 956
14.4 1029
14.46 1049
14.52 995
14.58 970
14.64 865
14.7 873
14.76 816
14.82 775
14.88 791
14.94 840
15 755
15.06 802
15.12 824
15.18 840
15.24 847
15.3 795
15.36 789
15.42 797
15.48 782
15.54 802
15.6 784
15.66 834
15.72 772
15.78 771
15.84 820
15.9 818
15.96 771
16.02 785
16.08 797
16.14 832
16.2 792
16.26 786
16.32 788
16.38 773
16.44 816
16.5 833
16.56 839
16.62 828
16.68 858
16.74 828
16.8 910
16.86 881
16.92 1014
16.98 1121
17.04 1100
17.1 924
17.16 849
17.22 826
17.28 843
17.34 846
17.4 857
17.46 849
17.52 880
17.58 920
17.64 891
17.7 912
17.76 971
17.82 995
17.88 1003
17.94 1004
18 1006
18.06 1064
18.12 1029
18.18 1075
18.24 1075
18.3 1080
18.36 1081
18.42 1020
18.48 1050
18.54 1060
18.6 1082
18.66 1059
18.72 931
18.78 936
18.84 952
18.9 939
18.96 939
19.02 1014
19.08 981
19.14 965
19.2 1008
19.26 1011
19.32 999
19.38 1018
19.44 1068
19.5 1064
19.56 1049
19.62 1097
19.68 1098
19.74 1235
19.8 1396
19.86 1548
19.92 1874
19.98 1971
20 1871

File: 37-11.ASC
3 2400
3.06 1973
3.12 1742
3.18 1636
3.24 1639
3.3 1588
3.36 1518
3.42 1400
3.48 1472
3.54 1406
3.6 1370
3.66 1370
3.72 1338
3.78 1253
3.84 1340
3.9 1298
3.96 1324
4.02 1290
4.08 1199
4.14 1184
4.2 1175
4.26 1241
4.32 1150
4.38 1160
4.44 1106
4.5 1208
4.56 1118
4.62 1117
4.68 1081
4.74 1128
4.8 1118
4.86 1141
4.92 1131
4.98 1150
5.04 1018
5.1 1072
5.16 1112
5.22 1092
5.28 1205
5.34 1266
5.4 1597
5.46 1250
5.52 1166
5.58 1139
5.64 1058
5.7 1216
5.76 1175
5.82 974
5.88 819
5.94 851
6 828
6.06 791
6.12 774
6.18 800
6.24 706
6.3 735
6.36 737
6.42 755
6.48 695
6.54 738
6.6 706
6.66 698
6.72 736
6.78 676
6.84 653
6.9 687
6.96 633
7.02 651
7.08 598
7.14 622
7.2 673
7.26 636
7.32 626
7.38 638
7.44 622
7.5 629
7.56 635
7.62 675
7.68 630
7.74 601
7.8 601
7.86 628
7.92 576
7.98 594
8.04 576
8.1 662
8.16 600
8.22 562
8.28 646
8.34 634
8.4 613
8.46 596
8.52 598
8.58 569
8.64 566
8.7 621
8.76 636
8.82 580
8.88 578
8.94 625
9 599
9.06 629
9.12 625
9.18 637
9.24 697
9.3 886
9.36 685
9.42 573
9.48 557
9.54 615
9.6 600
9.66 595
9.72 573
9.78 645
9.84 549
9.9 600
9.96 581
10.02 565
10.08 558
10.14 612
10.2 595
10.26 628
10.32 584
10.38 578
10.44 588
10.5 576
10.56 590
10.62 593
10.68 607
10.74 660
10.8 625
10.86 601
10.92 641
10.98 618
11.04 544
11.1 616
11.16 582
11.22 568
11.28 590
11.34 539
11.4 614
11.46 587
11.52 568
11.58 555
11.64 525
11.7 538
11.76 580
11.82 564
11.88 546
11.94 554
12 567
12.06 596
12.12 611
12.18 557
12.24 558
12.3 582
12.36 593
12.42 583
12.48 566
12.54 559
12.6 563
12.66 546
12.72 548
12.78 595
12.84 568
12.9 603
12.96 549
13.02 585
13.08 581
13.14 563
13.2 608
13.26 623
13.32 589
13.38 577
13.44 612
13.5 568
13.56 600
13.62 589
13.68 565
13.74 622
13.8 604
13.86 582
13.92 613
13.98 664
14.04 615
14.1 583
14.16 638
14.22 633
14.28 645
14.34 610
14.4 573
14.46 665
14.52 617
14.58 597
14.64 651
14.7 678
14.76 653
14.82 673
14.88 664
14.94 657
15 686
15.06 689
15.12 707
15.18 652
15.24 696
15.3 683
15.36 701
15.42 656
15.48 699
15.54 681
15.6 765
15.66 678
15.72 692
15.78 683
15.84 678
15.9 719
15.96 739
16.02 713
16.08 776
16.14 686
16.2 733
16.26 757
16.32 743
16.38 799
16.44 792
16.5 797
16.56 813
16.62 807
16.68 793
16.74 817
16.8 864
16.86 1003
16.92 1038
16.98 1967
17.04 1248
17.1 839
17.16 835
17.22 892
17.28 843
17.34 861
17.4 859
17.46 897
17.52 882
17.58 887
17.64 939
17.7 924
17.76 914
17.82 921
17.88 900
17.94 963
18 900
18.06 919
18.12 962
18.18 982
18.24 949
18.3 996
18.36 954
18.42 972
18.48 975
18.54 974
18.6 1016
18.66 1026
18.72 1026
18.78 1053
18.84 1046
18.9 1049
18.96 1045
19.02 1076
19.08 1083
19.14 1055
19.2 1067
19.26 1085
19.32 1092
19.38 1188
19.44 1134
19.5 1158
19.56 1156
19.62 1171
19.68 1109
19.74 1194
19.8 1136
19.86 1152
19.92 1203
19.98 1241
20 1175

File: 37-12.ASC
3 2457
3.06 1970
3.12 1708
3.18 1691
3.24 1500
3.3 1504
3.36 1543
3.42 1428
3.48 1437
3.54 1343
3.6 1336
3.66 1327
3.72 1226
3.78 1253
3.84 1241
3.9 1215
3.96 1215
4.02 1145
4.08 1184
4.14 1147
4.2 1132
4.26 1129
4.32 1111
4.38 1123
4.44 1131
4.5 1058
4.56 1153
4.62 1130
4.68 1118
4.74 1162
4.8 1126
4.86 1068
4.92 997
4.98 1044
5.04 1047
5.1 1082
5.16 1095
5.22 1102
5.28 1188
5.34 1236
5.4 1296
5.46 1260
5.52 1010
5.58 958
5.64 945
5.7 889
5.76 883
5.82 869
5.88 873
5.94 837
6 831
6.06 772
6.12 818
6.18 810
6.24 769
6.3 748
6.36 828
6.42 706
6.48 754
6.54 738
6.6 788
6.66 725
6.72 753
6.78 729
6.84 703
6.9 700
6.96 743
7.02 710
7.08 706
7.14 723
7.2 757
7.26 662
7.32 711
7.38 677
7.44 710
7.5 691
7.56 739
7.62 725
7.68 676
7.74 684
7.8 687
7.86 673
7.92 661
7.98 693
8.04 667
8.1 643
8.16 687
8.22 687
8.28 650
8.34 661
8.4 666
8.46 653
8.52 640
8.58 664
8.64 629
8.7 653
8.76 609
8.82 682
8.88 638
8.94 671
9 668
9.06 669
9.12 681
9.18 692
9.24 660
9.3 689
9.36 765
9.42 725
9.48 688
9.54 664
9.6 679
9.66 611
9.72 650
9.78 633
9.84 598
9.9 666
9.96 652
10.02 598
10.08 627
10.14 606
10.2 616
10.26 595
10.32 611
10.38 604
10.44 608
10.5 569
10.56 642
10.62 633
10.68 670
10.74 684
10.8 677
10.86 632
10.92 650
10.98 665
11.04 632
11.1 623
11.16 633
11.22 598
11.28 627
11.34 597
11.4 593
11.46 619
11.52 608
11.58 613
11.64 633
11.7 586
11.76 635
11.82 578
11.88 573
11.94 602
12 614
12.06 608
12.12 609
12.18 598
12.24 608
12.3 585
12.36 670
12.42 644
12.48 609
12.54 598
12.6 579
12.66 651
12.72 629
12.78 602
12.84 617
12.9 664
12.96 666
13.02 637
13.08 620
13.14 612
13.2 629
13.26 706
13.32 646
13.38 636
13.44 660
13.5 645
13.56 686
13.62 669
13.68 625
13.74 709
13.8 697
13.86 689
13.92 702
13.98 681
14.04 689
14.1 658
14.16 687
14.22 722
14.28 686
14.34 696
14.4 679
14.46 715
14.52 756
14.58 696
14.64 719
14.7 721
14.76 707
14.82 703
14.88 742
14.94 712
15 710
15.06 751
15.12 794
15.18 769
15.24 766
15.3 737
15.36 764
15.42 809
15.48 799
15.54 822
15.6 807
15.66 766
15.72 807
15.78 831
15.84 790
15.9 810
15.96 777
16.02 841
16.08 803
16.14 828
16.2 810
16.26 825
16.32 937
16.38 857
16.44 841
16.5 875
16.56 829
16.62 907
16.68 864
16.74 938
16.8 894
16.86 967
16.92 1076
16.98 1306
17.04 1501
17.1 1181
17.16 1017
17.22 933
17.28 952
17.34 988
17.4 959
17.46 982
17.52 1024
17.58 950
17.64 1002
17.7 1040
17.76 1018
17.82 1057
17.88 1070
17.94 1069
18 1031
18.06 1086
18.12 1068
18.18 1070
18.24 1066
18.3 1044
18.36 1124
18.42 1114
18.48 1092
18.54 1207
18.6 1112
18.66 1100
18.72 1227
18.78 1198
18.84 1212
18.9 1146
18.96 1191
19.02 1200
19.08 1255
19.14 1184
19.2 1198
19.26 1201
19.32 1277
19.38 1234
19.44 1294
19.5 1359
19.56 1351
19.62 1266
19.68 1287
19.74 1394
19.8 1351
19.86 1372
19.92 1357
19.98 1380
20 1360