Folder: CPC-code/xrd-UiO-67/pxrddata (part 21)

File: 43-10.ASC
3 2375
3.06 2029
3.12 1812
3.18 1661
3.24 1561
3.3 1504
3.36 1494
3.42 1427
3.48 1403
3.54 1401
3.6 1302
3.66 1337
3.72 1215
3.78 1221
3.84 1263
3.9 1218
3.96 1194
4.02 1152
4.08 1125
4.14 1156
4.2 1152
4.26 1098
4.32 1090
4.38 1077
4.44 1031
4.5 970
4.56 1025
4.62 1073
4.68 962
4.74 1006
4.8 999
4.86 1033
4.92 1023
4.98 1011
5.04 1015
5.1 1077
5.16 1101
5.22 1173
5.28 1220
5.34 1334
5.4 1579
5.46 2035
5.52 1458
5.58 1230
5.64 1152
5.7 1187
5.76 1264
5.82 1241
5.88 1075
5.94 859
6 820
6.06 783
6.12 773
6.18 721
6.24 772
6.3 716
6.36 731
6.42 697
6.48 709
6.54 760
6.6 731
6.66 678
6.72 734
6.78 755
6.84 723
6.9 696
6.96 676
7.02 678
7.08 671
7.14 658
7.2 655
7.26 654
7.32 651
7.38 657
7.44 709
7.5 659
7.56 695
7.62 665
7.68 701
7.74 711
7.8 704
7.86 607
7.92 634
7.98 660
8.04 666
8.1 681
8.16 657
8.22 625
8.28 654
8.34 648
8.4 664
8.46 688
8.52 661
8.58 631
8.64 642
8.7 682
8.76 675
8.82 679
8.88 690
8.94 679
9 655
9.06 693
9.12 718
9.18 768
9.24 836
9.3 890
9.36 1088
9.42 891
9.48 707
9.54 693
9.6 726
9.66 662
9.72 637
9.78 664
9.84 704
9.9 632
9.96 626
10.02 657
10.08 672
10.14 686
10.2 713
10.26 679
10.32 675
10.38 611
10.44 651
10.5 661
10.56 686
10.62 676
10.68 711
10.74 775
10.8 849
10.86 830
10.92 789
10.98 775
11.04 714
11.1 666
11.16 677
11.22 659
11.28 646
11.34 656
11.4 659
11.46 725
11.52 701
11.58 737
11.64 701
11.7 704
11.76 689
11.82 621
11.88 698
11.94 679
12 682
12.06 674
12.12 725
12.18 716
12.24 656
12.3 702
12.36 754
12.42 713
12.48 707
12.54 757
12.6 734
12.66 714
12.72 702
12.78 677
12.84 764
12.9 711
12.96 760
13.02 751
13.08 721
13.14 777
13.2 763
13.26 887
13.32 881
13.38 795
13.44 777
13.5 794
13.56 737
13.62 772
13.68 738
13.74 731
13.8 716
13.86 814
13.92 781
13.98 749
14.04 828
14.1 825
14.16 743
14.22 785
14.28 843
14.34 845
14.4 841
14.46 846
14.52 823
14.58 828
14.64 839
14.7 859
14.76 815
14.82 851
14.88 885
14.94 883
15 891
15.06 921
15.12 903
15.18 833
15.24 902
15.3 974
15.36 976
15.42 965
15.48 915
15.54 946
15.6 899
15.66 905
15.72 1033
15.78 991
15.84 966
15.9 1002
15.96 982
16.02 998
16.08 979
16.14 1020
16.2 981
16.26 997
16.32 989
16.38 1022
16.44 1097
16.5 1122
16.56 1109
16.62 1241
16.68 1156
16.74 1179
16.8 1349
16.86 1794
16.92 2285
16.98 4264
17.04 7512
17.1 4032
17.16 1436
17.22 1337
17.28 1251
17.34 1275
17.4 1261
17.46 1310
17.52 1212
17.58 1288
17.64 1307
17.7 1375
17.76 1251
17.82 1332
17.88 1293
17.94 1363
18 1302
18.06 1401
18.12 1391
18.18 1369
18.24 1443
18.3 1402
18.36 1384
18.42 1408
18.48 1451
18.54 1461
18.6 1529
18.66 1501
18.72 1505
18.78 1508
18.84 1545
18.9 1562
18.96 1579
19.02 1542
19.08 1566
19.14 1645
19.2 1576
19.26 1638
19.32 1591
19.38 1680
19.44 1649
19.5 1744
19.56 1831
19.62 1663
19.68 1692
19.74 1697
19.8 1752
19.86 1760
19.92 1694
19.98 1671
20 1729

File: 44-11.ASC
3 3246
3.06 2765
3.12 2419
3.18 2347
3.24 2260
3.3 2148
3.36 2069
3.42 1899
3.48 1878
3.54 1789
3.6 1657
3.66 1583
3.72 1585
3.78 1454
3.84 1410
3.9 1353
3.96 1361
4.02 1204
4.08 1217
4.14 1230
4.2 1180
4.26 1095
4.32 1104
4.38 1058
4.44 1018
4.5 1040
4.56 1004
4.62 966
4.68 994
4.74 937
4.8 903
4.86 955
4.92 940
4.98 886
5.04 940
5.1 955
5.16 995
5.22 1049
5.28 1061
5.34 1228
5.4 1482
5.46 1866
5.52 1413
5.58 1314
5.64 1228
5.7 1254
5.76 1398
5.82 1185
5.88 885
5.94 823
6 759
6.06 751
6.12 679
6.18 712
6.24 673
6.3 664
6.36 684
6.42 712
6.48 638
6.54 702
6.6 639
6.66 719
6.72 622
6.78 693
6.84 644
6.9 611
6.96 622
7.02 629
7.08 613
7.14 602
7.2 598
7.26 632
7.32 600
7.38 606
7.44 628
7.5 610
7.56 583
7.62 606
7.68 587
7.74 570
7.8 622
7.86 569
7.92 639
7.98 605
8.04 569
8.1 568
8.16 561
8.22 604
8.28 567
8.34 574
8.4 572
8.46 594
8.52 527
8.58 554
8.64 548
8.7 549
8.76 560
8.82 565
8.88 594
8.94 605
9 554
9.06 625
9.12 633
9.18 667
9.24 745
9.3 776
9.36 1085
9.42 823
9.48 595
9.54 582
9.6 558
9.66 548
9.72 537
9.78 555
9.84 539
9.9 571
9.96 558
10.02 583
10.08 549
10.14 547
10.2 590
10.26 570
10.32 607
10.38 580
10.44 547
10.5 571
10.56 610
10.62 587
10.68 643
10.74 665
10.8 704
10.86 700
10.92 688
10.98 687
11.04 675
11.1 565
11.16 564
11.22 544
11.28 526
11.34 503
11.4 559
11.46 597
11.52 521
11.58 587
11.64 530
11.7 603
11.76 519
11.82 561
11.88 549
11.94 550
12 552
12.06 563
12.12 550
12.18 579
12.24 574
12.3 561
12.36 575
12.42 547
12.48 547
12.54 564
12.6 522
12.66 577
12.72 532
12.78 533
12.84 560
12.9 584
12.96 577
13.02 534
13.08 544
13.14 573
13.2 607
13.26 625
13.32 574
13.38 599
13.44 619
13.5 577
13.56 607
13.62 573
13.68 610
13.74 582
13.8 580
13.86 605
13.92 591
13.98 608
14.04 617
14.1 613
14.16 634
14.22 635
14.28 620
14.34 623
14.4 657
14.46 647
14.52 607
14.58 639
14.64 672
14.7 665
14.76 619
14.82 708
14.88 737
14.94 694
15 662
15.06 683
15.12 677
15.18 640
15.24 682
15.3 672
15.36 644
15.42 732
15.48 684
15.54 663
15.6 694
15.66 725
15.72 777
15.78 740
15.84 757
15.9 750
15.96 684
16.02 696
16.08 765
16.14 753
16.2 744
16.26 808
16.32 743
16.38 781
16.44 804
16.5 831
16.56 822
16.62 834
16.68 834
16.74 873
16.8 880
16.86 943
16.92 1094
16.98 1392
17.04 1602
17.1 1156
17.16 946
17.22 926
17.28 934
17.34 918
17.4 892
17.46 904
17.52 931
17.58 894
17.64 905
17.7 879
17.76 946
17.82 975
17.88 961
17.94 982
18 971
18.06 961
18.12 995
18.18 956
18.24 988
18.3 983
18.36 942
18.42 1044
18.48 1025
18.54 1057
18.6 1084
18.66 1141
18.72 1100
18.78 1096
18.84 1091
18.9 1092
18.96 1110
19.02 1192
19.08 1137
19.14 1188
19.2 1167
19.26 1211
19.32 1127
19.38 1204
19.44 1258
19.5 1310
19.56 1307
19.62 1321
19.68 1281
19.74 1240
19.8 1245
19.86 1311
19.92 1292
19.98 1232
20 1292

File: 44-12.ASC
3 1950
3.06 1541
3.12 1324
3.18 1215
3.24 1203
3.3 1186
3.36 1067
3.42 1146
3.48 1041
3.54 1004
3.6 1012
3.66 1024
3.72 998
3.78 968
3.84 952
3.9 959
3.96 922
4.02 896
4.08 927
4.14 889
4.2 883
4.26 874
4.32 802
4.38 796
4.44 768
4.5 776
4.56 727
4.62 700
4.68 723
4.74 704
4.8 741
4.86 718
4.92 684
4.98 719
5.04 766
5.1 729
5.16 785
5.22 781
5.28 894
5.34 942
5.4 1039
5.46 1185
5.52 1535
5.58 1508
5.64 1218
5.7 1176
5.76 1306
5.82 1509
5.88 1623
5.94 1415
6 960
6.06 757
6.12 656
6.18 598
6.24 612
6.3 556
6.36 566
6.42 575
6.48 573
6.54 590
6.6 592
6.66 566
6.72 624
6.78 612
6.84 559
6.9 613
6.96 653
7.02 559
7.08 536
7.14 519
7.2 517
7.26 522
7.32 511
7.38 531
7.44 493
7.5 513
7.56 502
7.62 535
7.68 507
7.74 486
7.8 485
7.86 542
7.92 481
7.98 530
8.04 500
8.1 567
8.16 480
8.22 525
8.28 533
8.34 549
8.4 533
8.46 504
8.52 557
8.58 488
8.64 477
8.7 503
8.76 481
8.82 521
8.88 493
8.94 500
9 557
9.06 587
9.12 536
9.18 571
9.24 574
9.3 655
9.36 731
9.42 877
9.48 958
9.54 718
9.6 547
9.66 532
9.72 526
9.78 551
9.84 502
9.9 552
9.96 556
10.02 543
10.08 502
10.14 514
10.2 584
10.26 607
10.32 598
10.38 603
10.44 557
10.5 529
10.56 513
10.62 498
10.68 543
10.74 567
10.8 592
10.86 685
10.92 705
10.98 703
11.04 759
11.1 779
11.16 599
11.22 563
11.28 580
11.34 534
11.4 516
11.46 573
11.52 563
11.58 593
11.64 577
11.7 569
11.76 539
11.82 509
11.88 551
11.94 572
12 519
12.06 526
12.12 483
12.18 545
12.24 548
12.3 563
12.36 564
12.42 554
12.48 543
12.54 514
12.6 568
12.66 528
12.72 517
12.78 535
12.84 578
12.9 537
12.96 544
13.02 570
13.08 568
13.14 557
13.2 544
13.26 559
13.32 546
13.38 542
13.44 546
13.5 593
13.56 585
13.62 644
13.68 608
13.74 573
13.8 578
13.86 603
13.92 569
13.98 602
14.04 561
14.1 563
14.16 587
14.22 638
14.28 659
14.34 662
14.4 674
14.46 655
14.52 685
14.58 642
14.64 626
14.7 609
14.76 629
14.82 657
14.88 701
14.94 644
15 718
15.06 700
15.12 675
15.18 713
15.24 700
15.3 698
15.36 716
15.42 733
15.48 722
15.54 680
15.6 737
15.66 737
15.72 679
15.78 719
15.84 783
15.9 758
15.96 724
16.02 798
16.08 794
16.14 805
16.2 796
16.26 761
16.32 778
16.38 848
16.44 810
16.5 811
16.56 837
16.62 848
16.68 872
16.74 827
16.8 885
16.86 929
16.92 897
16.98 961
17.04 947
17.1 917
17.16 973
17.22 955
17.28 970
17.34 971
17.4 921
17.46 968
17.52 1032
17.58 976
17.64 1015
17.7 1005
17.76 1002
17.82 1039
17.88 998
17.94 995
18 1092
18.06 1062
18.12 1048
18.18 1117
18.24 1057
18.3 1073
18.36 1048
18.42 1137
18.48 1144
18.54 1172
18.6 1176
18.66 1133
18.72 1203
18.78 1201
18.84 1170
18.9 1214
18.96 1247
19.02 1313
19.08 1324
19.14 1308
19.2 1317
19.26 1360
19.32 1301
19.38 1319
19.44 1375
19.5 1395
19.56 1407
19.62 1484
19.68 1426
19.74 1443
19.8 1346
19.86 1352
19.92 1421
19.98 1333
20 1389

File: 44-13.ASC
3 2636
3.06 2165
3.12 1963
3.18 1827
3.24 1834
3.3 1823
3.36 1677
3.42 1636
3.48 1654
3.54 1541
3.6 1603
3.66 1503
3.72 1404
3.78 1566
3.84 1406
3.9 1523
3.96 1440
4.02 1412
4.08 1443
4.14 1386
4.2 1363
4.26 1401
4.32 1405
4.38 1392
4.44 1421
4.5 1355
4.56 1406
4.62 1390
4.68 1395
4.74 1477
4.8 1409
4.86 1472
4.92 1511
4.98 1478
5.04 1614
5.1 1690
5.16 1787
5.22 1834
5.28 2109
5.34 2530
5.4 3073
5.46 3922
5.52 2952
5.58 2435
5.64 2309
5.7 2382
5.76 2327
5.82 2070
5.88 1633
5.94 1397
6 1183
6.06 1052
6.12 1046
6.18 1099
6.24 985
6.3 994
6.36 896
6.42 944
6.48 899
6.54 930
6.6 905
6.66 950
6.72 873
6.78 979
6.84 922
6.9 840
6.96 873
7.02 865
7.08 816
7.14 814
7.2 794
7.26 770
7.32 820
7.38 816
7.44 815
7.5 750
7.56 830
7.62 813
7.68 790
7.74 839
7.8 792
7.86 794
7.92 784
7.98 792
8.04 863
8.1 780
8.16 809
8.22 852
8.28 835
8.34 851
8.4 764
8.46 786
8.52 759
8.58 826
8.64 788
8.7 805
8.76 789
8.82 811
8.88 835
8.94 861
9 877
9.06 877
9.12 933
9.18 1007
9.24 1111
9.3 1454
9.36 1940
9.42 1346
9.48 920
9.54 868
9.6 890
9.66 823
9.72 802
9.78 840
9.84 834
9.9 852
9.96 913
10.02 810
10.08 899
10.14 876
10.2 899
10.26 829
10.32 843
10.38 861
10.44 841
10.5 843
10.56 883
10.62 966
10.68 986
10.74 1052
10.8 1314
10.86 1188
10.92 1158
10.98 1176
11.04 1005
11.1 882
11.16 862
11.22 826
11.28 810
11.34 822
11.4 843
11.46 883
11.52 919
11.58 856
11.64 872
11.7 871
11.76 815
11.82 857
11.88 843
11.94 790
12 809
12.06 858
12.12 855
12.18 889
12.24 875
12.3 920
12.36 874
12.42 833
12.48 882
12.54 867
12.6 884
12.66 856
12.72 893
12.78 870
12.84 867
12.9 920
12.96 833
13.02 913
13.08 862
13.14 849
13.2 960
13.26 917
13.32 924
13.38 902
13.44 882
13.5 917
13.56 906
13.62 931
13.68 924
13.74 940
13.8 902
13.86 984
13.92 894
13.98 934
14.04 924
14.1 877
14.16 955
14.22 990
14.28 981
14.34 952
14.4 974
14.46 928
14.52 1018
14.58 987
14.64 983
14.7 1019
14.76 972
14.82 1006
14.88 1015
14.94 974
15 997
15.06 1053
15.12 996
15.18 987
15.24 1008
15.3 962
15.36 955
15.42 985
15.48 1051
15.54 1050
15.6 1056
15.66 1016
15.72 1028
15.78 1047
15.84 1047
15.9 1023
15.96 1100
16.02 1081
16.08 1078
16.14 1147
16.2 1049
16.26 1097
16.32 1099
16.38 1163
16.44 1189
16.5 1137
16.56 1245
16.62 1204
16.68 1230
16.74 1276
16.8 1362
16.86 1460
16.92 1941
16.98 2759
17.04 2563
17.1 1559
17.16 1327
17.22 1288
17.28 1286
17.34 1300
17.4 1323
17.46 1313
17.52 1318
17.58 1339
17.64 1325
17.7 1316
17.76 1321
17.82 1282
17.88 1335
17.94 1408
18 1442
18.06 1359
18.12 1374
18.18 1377
18.24 1382
18.3 1450
18.36 1450
18.42 1460
18.48 1457
18.54 1479
18.6 1500
18.66 1512
18.72 1555
18.78 1538
18.84 1504
18.9 1556
18.96 1528
19.02 1574
19.08 1570
19.14 1676
19.2 1601
19.26 1657
19.32 1608
19.38 1646
19.44 1703
19.5 1846
19.56 1759
19.62 1813
19.68 1718
19.74 1672
19.8 1695
19.86 1658
19.92 1715
19.98 1698
20 1694

File: 45-1.ASC
3 2278
3.06 1865
3.12 1574
3.18 1445
3.24 1403
3.3 1365
3.36 1366
3.42 1216
3.48 1282
3.54 1194
3.6 1162
3.66 1119
3.72 1064
3.78 1086
3.84 1063
3.9 940
3.96 1009
4.02 994
4.08 962
4.14 968
4.2 935
4.26 871
4.32 851
4.38 833
4.44 801
4.5 842
4.56 784
4.62 821
4.68 742
4.74 777
4.8 736
4.86 729
4.92 713
4.98 778
5.04 731
5.1 774
5.16 778
5.22 744
5.28 844
5.34 776
5.4 836
5.46 917
5.52 910
5.58 955
5.64 1070
5.7 1251
5.76 1787
5.82 2310
5.88 1318
5.94 838
6 732
6.06 645
6.12 733
6.18 677
6.24 646
6.3 726
6.36 709
6.42 706
6.48 787
6.54 849
6.6 871
6.66 989
6.72 1003
6.78 968
6.84 756
6.9 626
6.96 659
7.02 581
7.08 666
7.14 566
7.2 606
7.26 578
7.32 581
7.38 581
7.44 559
7.5 576
7.56 633
7.62 580
7.68 565
7.74 583
7.8 516
7.86 583
7.92 575
7.98 585
8.04 596
8.1 587
8.16 597
8.22 578
8.28 590
8.34 572
8.4 544
8.46 543
8.52 543
8.58 593
8.64 591
8.7 579
8.76 552
8.82 594
8.88 574
8.94 550
9 514
9.06 598
9.12 604
9.18 604
9.24 651
9.3 778
9.36 979
9.42 1077
9.48 803
9.54 599
9.6 559
9.66 575
9.72 506
9.78 623
9.84 559
9.9 573
9.96 578
10.02 543
10.08 545
10.14 554
10.2 630
10.26 580
10.32 535
10.38 490
10.44 560
10.5 538
10.56 518
10.62 568
10.68 559
10.74 596
10.8 613
10.86 703
10.92 787
10.98 835
11.04 777
11.1 783
11.16 721
11.22 614
11.28 663
11.34 613
11.4 614
11.46 621
11.52 708
11.58 696
11.64 606
11.7 592
11.76 578
11.82 581
11.88 559
11.94 549
12 525
12.06 543
12.12 511
12.18 539
12.24 567
12.3 614
12.36 569
12.42 548
12.48 563
12.54 597
12.6 550
12.66 551
12.72 500
12.78 554
12.84 560
12.9 608
12.96 576
13.02 611
13.08 612
13.14 578
13.2 595
13.26 602
13.32 614
13.38 574
13.44 669
13.5 576
13.56 616
13.62 587
13.68 609
13.74 601
13.8 618
13.86 558
13.92 600
13.98 561
14.04 631
14.1 605
14.16 601
14.22 622
14.28 625
14.34 710
14.4 674
14.46 700
14.52 682
14.58 657
14.64 640
14.7 650
14.76 672
14.82 628
14.88 694
14.94 682
15 675
15.06 668
15.12 652
15.18 647
15.24 677
15.3 692
15.36 712
15.42 713
15.48 690
15.54 688
15.6 748
15.66 742
15.72 742
15.78 667
15.84 707
15.9 733
15.96 724
16.02 717
16.08 750
16.14 765
16.2 717
16.26 774
16.32 760
16.38 783
16.44 768
16.5 847
16.56 820
16.62 786
16.68 802
16.74 841
16.8 853
16.86 862
16.92 989
16.98 1231
17.04 1381
17.1 1115
17.16 916
17.22 905
17.28 906
17.34 917
17.4 955
17.46 925
17.52 921
17.58 904
17.64 943
17.7 934
17.76 908
17.82 902
17.88 928
17.94 967
18 935
18.06 960
18.12 982
18.18 1001
18.24 1022
18.3 991
18.36 998
18.42 991
18.48 1027
18.54 1013
18.6 1028
18.66 1118
18.72 1024
18.78 1101
18.84 1123
18.9 1105
18.96 1094
19.02 1104
19.08 1133
19.14 1159
19.2 1146
19.26 1210
19.32 1198
19.38 1174
19.44 1189
19.5 1257
19.56 1317
19.62 1250
19.68 1321
19.74 1270
19.8 1308
19.86 1329
19.92 1373
19.98 1358
20 1339

File: 45-2.ASC
3 2214
3.06 1812
3.12 1527
3.18 1424
3.24 1292
3.3 1263
3.36 1208
3.42 1175
3.48 1156
3.54 1097
3.6 1069
3.66 1117
3.72 1028
3.78 958
3.84 951
3.9 906
3.96 918
4.02 958
4.08 928
4.14 872
4.2 844
4.26 780
4.32 758
4.38 747
4.44 747
4.5 741
4.56 742
4.62 711
4.68 706
4.74 690
4.8 712
4.86 636
4.92 678
4.98 701
5.04 686
5.1 674
5.16 767
5.22 748
5.28 794
5.34 886
5.4 1029
5.46 927
5.52 919
5.58 1028
5.64 1197
5.7 1518
5.76 2154
5.82 1410
5.88 728
5.94 628
6 589
6.06 579
6.12 591
6.18 603
6.24 613
6.3 609
6.36 613
6.42 613
6.48 648
6.54 697
6.6 772
6.66 754
6.72 702
6.78 694
6.84 591
6.9 560
6.96 529
7.02 546
7.08 529
7.14 520
7.2 546
7.26 549
7.32 546
7.38 523
7.44 543
7.5 588
7.56 516
7.62 547
7.68 517
7.74 539
7.8 580
7.86 551
7.92 552
7.98 567
8.04 556
8.1 573
8.16 574
8.22 549
8.28 543
8.34 531
8.4 522
8.46 540
8.52 539
8.58 530
8.64 562
8.7 516
8.76 533
8.82 551
8.88 500
8.94 541
9 595
9.06 636
9.12 670
9.18 749
9.24 905
9.3 1320
9.36 940
9.42 679
9.48 515
9.54 511
9.6 601
9.66 549
9.72 541
9.78 569
9.84 551
9.9 565
9.96 555
10.02 579
10.08 622
10.14 736
10.2 671
10.26 586
10.32 535
10.38 574
10.44 510
10.5 525
10.56 549
10.62 593
10.68 669
10.74 729
10.8 756
10.86 794
10.92 1165
10.98 943
11.04 656
11.1 575
11.16 565
11.22 583
11.28 575
11.34 600
11.4 700
11.46 823
11.52 698
11.58 637
11.64 515
11.7 501
11.76 502
11.82 544
11.88 529
11.94 533
12 543
12.06 531
12.12 608
12.18 590
12.24 558
12.3 573
12.36 525
12.42 552
12.48 530
12.54 508
12.6 539
12.66 505
12.72 530
12.78 576
12.84 528
12.9 537
12.96 497
13.02 542
13.08 537
13.14 531
13.2 547
13.26 556
13.32 552
13.38 536
13.44 581
13.5 505
13.56 510
13.62 525
13.68 545
13.74 566
13.8 525
13.86 551
13.92 520
13.98 563
14.04 551
14.1 553
14.16 587
14.22 621
14.28 603
14.34 634
14.4 662
14.46 610
14.52 605
14.58 586
14.64 631
14.7 570
14.76 635
14.82 680
14.88 650
14.94 580
15 577
15.06 602
15.12 569
15.18 609
15.24 626
15.3 614
15.36 631
15.42 600
15.48 653
15.54 607
15.6 635
15.66 624
15.72 641
15.78 652
15.84 623
15.9 634
15.96 627
16.02 673
16.08 633
16.14 695
16.2 744
16.26 698
16.32 680
16.38 694
16.44 686
16.5 685
16.56 656
16.62 703
16.68 645
16.74 687
16.8 721
16.86 740
16.92 890
16.98 850
17.04 774
17.1 745
17.16 783
17.22 878
17.28 839
17.34 780
17.4 777
17.46 761
17.52 810
17.58 781
17.64 765
17.7 838
17.76 800
17.82 914
17.88 802
17.94 767
18 839
18.06 832
18.12 888
18.18 796
18.24 848
18.3 843
18.36 791
18.42 831
18.48 852
18.54 920
18.6 961
18.66 956
18.72 954
18.78 956
18.84 904
18.9 984
18.96 912
19.02 1008
19.08 1152
19.14 1122
19.2 972
19.26 946
19.32 1029
19.38 1155
19.44 1166
19.5 1255
19.56 1227
19.62 1097
19.68 1041
19.74 1073
19.8 1190
19.86 1253
19.92 1129
19.98 1106
20 1043

File: 45-3.ASC
3 2612
3.06 2183
3.12 1885
3.18 1779
3.24 1693
3.3 1656
3.36 1484
3.42 1443
3.48 1381
3.54 1368
3.6 1334
3.66 1263
3.72 1266
3.78 1199
3.84 1202
3.9 1202
3.96 1099
4.02 1092
4.08 1171
4.14 1157
4.2 994
4.26 942
4.32 908
4.38 903
4.44 878
4.5 856
4.56 889
4.62 780
4.68 753
4.74 823
4.8 781
4.86 788
4.92 757
4.98 815
5.04 762
5.1 831
5.16 810
5.22 847
5.28 801
5.34 888
5.4 1149
5.46 857
5.52 871
5.58 947
5.64 1063
5.7 1230
5.76 1735
5.82 1107
5.88 703
5.94 647
6 611
6.06 650
6.12 629
6.18 598
6.24 618
6.3 595
6.36 620
6.42 654
6.48 614
6.54 656
6.6 622
6.66 661
6.72 710
6.78 722
6.84 641
6.9 619
6.96 594
7.02 599
7.08 620
7.14 589
7.2 616
7.26 563
7.32 583
7.38 569
7.44 592
7.5 604
7.56 597
7.62 567
7.68 614
7.74 621
7.8 613
7.86 547
7.92 558
7.98 568
8.04 632
8.1 634
8.16 640
8.22 610
8.28 607
8.34 585
8.4 608
8.46 572
8.52 603
8.58 585
8.64 550
8.7 593
8.76 623
8.82 555
8.88 592
8.94 609
9 598
9.06 610
9.12 605
9.18 647
9.24 669
9.3 789
9.36 823
9.42 605
9.48 600
9.54 592
9.6 593
9.66 606
9.72 649
9.78 629
9.84 574
9.9 585
9.96 598
10.02 606
10.08 605
10.14 595
10.2 688
10.26 590
10.32 602
10.38 568
10.44 569
10.5 572
10.56 546
10.62 611
10.68 628
10.74 610
10.8 618
10.86 614
10.92 682
10.98 743
11.04 595
11.1 575
11.16 576
11.22 586
11.28 600
11.34 577
11.4 576
11.46 689
11.52 673
11.58 625
11.64 594
11.7 592
11.76 631
11.82 570
11.88 606
11.94 565
12 583
12.06 577
12.12 607
12.18 583
12.24 618
12.3 580
12.36 616
12.42 575
12.48 564
12.54 601
12.6 624
12.66 572
12.72 562
12.78 583
12.84 595
12.9 572
12.96 624
13.02 621
13.08 598
13.14 628
13.2 614
13.26 631
13.32 629
13.38 659
13.44 660
13.5 646
13.56 617
13.62 669
13.68 655
13.74 659
13.8 619
13.86 624
13.92 651
13.98 584
14.04 632
14.1 658
14.16 669
14.22 659
14.28 648
14.34 687
14.4 659
14.46 675
14.52 660
14.58 689
14.64 665
14.7 689
14.76 699
14.82 763
14.88 740
14.94 699
15 707
15.06 681
15.12 742
15.18 713
15.24 744
15.3 728
15.36 759
15.42 787
15.48 735
15.54 781
15.6 773
15.66 767
15.72 798
15.78 792
15.84 775
15.9 760
15.96 802
16.02 809
16.08 731
16.14 832
16.2 770
16.26 847
16.32 877
16.38 848
16.44 905
16.5 885
16.56 905
16.62 907
16.68 855
16.74 948
16.8 1044
16.86 1107
16.92 1414
16.98 1960
17.04 1714
17.1 1054
17.16 959
17.22 1016
17.28 985
17.34 956
17.4 950
17.46 961
17.52 998
17.58 945
17.64 1000
17.7 985
17.76 1053
17.82 1003
17.88 988
17.94 1037
18 1083
18.06 1074
18.12 1018
18.18 1030
18.24 1110
18.3 1054
18.36 1092
18.42 1068
18.48 1089
18.54 1141
18.6 1182
18.66 1093
18.72 1124
18.78 1222
18.84 1218
18.9 1121
18.96 1219
19.02 1178
19.08 1255
19.14 1277
19.2 1208
19.26 1219
19.32 1260
19.38 1223
19.44 1326
19.5 1282
19.56 1278
19.62 1317
19.68 1305
19.74 1201
19.8 1337
19.86 1341
19.92 1347
19.98 1256
20 1328

File: 45-5.ASC
3 2444
3.06 2026
3.12 1730
3.18 1679
3.24 1614
3.3 1518
3.36 1461
3.42 1421
3.48 1354
3.54 1240
3.6 1225
3.66 1194
3.72 1119
3.78 1139
3.84 1083
3.9 1049
3.96 1049
4.02 1008
4.08 940
4.14 924
4.2 898
4.26 879
4.32 818
4.38 883
4.44 844
4.5 753
4.56 800
4.62 767
4.68 735
4.74 738
4.8 714
4.86 694
4.92 759
4.98 701
5.04 695
5.1 667
5.16 670
5.22 641
5.28 659
5.34 659
5.4 633
5.46 663
5.52 651
5.58 638
5.64 680
5.7 665
5.76 669
5.82 637
5.88 617
5.94 665
6 625
6.06 616
6.12 676
6.18 653
6.24 615
6.3 658
6.36 615
6.42 659
6.48 667
6.54 605
6.6 650
6.66 676
6.72 664
6.78 610
6.84 653
6.9 599
6.96 634
7.02 647
7.08 662
7.14 653
7.2 674
7.26 656
7.32 654
7.38 660
7.44 658
7.5 646
7.56 663
7.62 590
7.68 705
7.74 656
7.8 642
7.86 666
7.92 631
7.98 640
8.04 622
8.1 667
8.16 656
8.22 682
8.28 671
8.34 713
8.4 691
8.46 722
8.52 753
8.58 738
8.64 765
8.7 809
8.76 837
8.82 906
8.88 971
8.94 1183
9 1235
9.06 1129
9.12 1148
9.18 1021
9.24 978
9.3 993
9.36 977
9.42 882
9.48 804
9.54 789
9.6 798
9.66 751
9.72 839
9.78 904
9.84 997
9.9 1033
9.96 1142
10.02 1237
10.08 1070
10.14 974
10.2 836
10.26 785
10.32 811
10.38 768
10.44 766
10.5 703
10.56 712
10.62 746
10.68 724
10.74 711
10.8 691
10.86 659
10.92 707
10.98 650
11.04 632
11.1 621
11.16 581
11.22 606
11.28 585
11.34 562
11.4 591
11.46 543
11.52 506
11.58 540
11.64 543
11.7 542
11.76 517
11.82 512
11.88 576
11.94 541
12 549
12.06 557
12.12 534
12.18 564
12.24 576
12.3 555
12.36 563
12.42 571
12.48 671
12.54 726
12.6 818
12.66 886
12.72 828
12.78 710
12.84 633
12.9 661
12.96 583
13.02 555
13.08 576
13.14 644
13.2 615
13.26 660
13.32 627
13.38 565
13.44 558
13.5 612
13.56 589
13.62 579
13.68 646
13.74 606
13.8 591
13.86 564
13.92 585
13.98 586
14.04 577
14.1 584
14.16 590
14.22 553
14.28 571
14.34 622
14.4 596
14.46 654
14.52 633
14.58 611
14.64 678
14.7 603
14.76 610
14.82 611
14.88 613
14.94 553
15 675
15.06 627
15.12 641
15.18 644
15.24 621
15.3 628
15.36 648
15.42 644
15.48 631
15.54 647
15.6 675
15.66 648
15.72 656
15.78 625
15.84 619
15.9 657
15.96 680
16.02 664
16.08 698
16.14 681
16.2 710
16.26 686
16.32 655
16.38 676
16.44 747
16.5 690
16.56 708
16.62 790
16.68 697
16.74 792
16.8 791
16.86 878
16.92 1087
16.98 1422
17.04 1379
17.1 968
17.16 841
17.22 786
17.28 771
17.34 817
17.4 794
17.46 773
17.52 817
17.58 787
17.64 787
17.7 817
17.76 851
17.82 868
17.88 855
17.94 879
18 839
18.06 892
18.12 846
18.18 898
18.24 897
18.3 871
18.36 927
18.42 956
18.48 933
18.54 915
18.6 915
18.66 970
18.72 952
18.78 916
18.84 936
18.9 1006
18.96 1008
19.02 989
19.08 997
19.14 1003
19.2 945
19.26 1010
19.32 965
19.38 1009
19.44 1003
19.5 1029
19.56 1009
19.62 1033
19.68 1126
19.74 1123
19.8 1138
19.86 1139
19.92 1191
19.98 1228
20 1241

File: 45-6.ASC
3 2349
3.06 1872
3.12 1647
3.18 1509
3.24 1535
3.3 1475
3.36 1369
3.42 1394
3.48 1288
3.54 1224
3.6 1329
3.66 1164
3.72 1189
3.78 1181
3.84 1138
3.9 1157
3.96 1123
4.02 1123
4.08 1187
4.14 1137
4.2 1034
4.26 1024
4.32 956
4.38 1002
4.44 980
4.5 1037
4.56 1037
4.62 1023
4.68 1015
4.74 1047
4.8 991
4.86 975
4.92 980
4.98 1064
5.04 1018
5.1 1042
5.16 1105
5.22 1162
5.28 1299
5.34 1387
5.4 1749
5.46 1524
5.52 1185
5.58 1082
5.64 1108
5.7 1040
5.76 1000
5.82 878
5.88 890
5.94 838
6 777
6.06 764
6.12 756
6.18 764
6.24 722
6.3 699
6.36 698
6.42 736
6.48 698
6.54 657
6.6 706
6.66 727
6.72 714
6.78 704
6.84 644
6.9 671
6.96 679
7.02 672
7.08 654
7.14 637
7.2 623
7.26 670
7.32 695
7.38 622
7.44 685
7.5 667
7.56 673
7.62 688
7.68 659
7.74 689
7.8 683
7.86 689
7.92 688
7.98 677
8.04 690
8.1 662
8.16 617
8.22 621
8.28 631
8.34 649
8.4 665
8.46 632
8.52 693
8.58 657
8.64 657
8.7 621
8.76 659
8.82 669
8.88 669
8.94 694
9 690
9.06 776
9.12 688
9.18 707
9.24 741
9.3 920
9.36 887
9.42 713
9.48 718
9.54 672
9.6 650
9.66 667
9.72 632
9.78 633
9.84 674
9.9 641
9.96 666
10.02 666
10.08 638
10.14 665
10.2 629
10.26 627
10.32 630
10.38 626
10.44 603
10.5 714
10.56 627
10.62 686
10.68 677
10.74 780
10.8 770
10.86 711
10.92 684
10.98 694
11.04 667
11.1 692
11.16 635
11.22 624
11.28 620
11.34 616
11.4 606
11.46 609
11.52 688
11.58 605
11.64 635
11.7 657
11.76 672
11.82 625
11.88 660
11.94 630
12 616
12.06 629
12.12 653
12.18 665
12.24 707
12.3 677
12.36 629
12.42 644
12.48 642
12.54 647
12.6 663
12.66 626
12.72 648
12.78 661
12.84 683
12.9 740
12.96 653
13.02 667
13.08 713
13.14 677
13.2 690
13.26 712
13.32 713
13.38 622
13.44 692
13.5 652
13.56 624
13.62 688
13.68 698
13.74 713
13.8 720
13.86 694
13.92 692
13.98 751
14.04 737
14.1 727
14.16 712
14.22 737
14.28 732
14.34 758
14.4 720
14.46 752
14.52 701
14.58 781
14.64 736
14.7 724
14.76 749
14.82 767
14.88 761
14.94 814
15 775
15.06 809
15.12 766
15.18 840
15.24 797
15.3 833
15.36 807
15.42 827
15.48 756
15.54 852
15.6 828
15.66 869
15.72 871
15.78 875
15.84 886
15.9 856
15.96 866
16.02 885
16.08 921
16.14 877
16.2 932
16.26 911
16.32 903
16.38 1017
16.44 938
16.5 925
16.56 944
16.62 914
16.68 987
16.74 1030
16.8 1065
16.86 1158
16.92 1486
16.98 1983
17.04 1683
17.1 1182
17.16 1040
17.22 1103
17.28 1082
17.34 1047
17.4 1055
17.46 1067
17.52 1116
17.58 1091
17.64 1115
17.7 1149
17.76 1174
17.82 1148
17.88 1167
17.94 1146
18 1110
18.06 1165
18.12 1158
18.18 1147
18.24 1200
18.3 1208
18.36 1248
18.42 1204
18.48 1208
18.54 1273
18.6 1273
18.66 1353
18.72 1338
18.78 1300
18.84 1314
18.9 1300
18.96 1383
19.02 1321
19.08 1383
19.14 1322
19.2 1336
19.26 1425
19.32 1398
19.38 1394
19.44 1489
19.5 1517
19.56 1413
19.62 1369
19.68 1441
19.74 1383
19.8 1444
19.86 1479
19.92 1475
19.98 1493
20 1456