Folder: CPC-code/xrd-UiO-67/pxrddata (part 25)

File: 53-6.ASC
3 2143
3.06 2005
3.12 1774
3.18 1829
3.24 1685
3.3 1720
3.36 1602
3.42 1504
3.48 1558
3.54 1498
3.6 1482
3.66 1399
3.72 1356
3.78 1327
3.84 1341
3.9 1365
3.96 1289
4.02 1372
4.08 1273
4.14 1308
4.2 1282
4.26 1250
4.32 1164
4.38 1241
4.44 1211
4.5 1199
4.56 1218
4.62 1223
4.68 1220
4.74 1189
4.8 1239
4.86 1248
4.92 1306
4.98 1394
5.04 1281
5.1 1374
5.16 1262
5.22 1394
5.28 1483
5.34 1587
5.4 1548
5.46 1604
5.52 1552
5.58 1610
5.64 1617
5.7 1767
5.76 1915
5.82 1836
5.88 1388
5.94 1161
6 1055
6.06 1047
6.12 969
6.18 965
6.24 926
6.3 969
6.36 853
6.42 906
6.48 934
6.54 899
6.6 855
6.66 840
6.72 843
6.78 818
6.84 789
6.9 779
6.96 785
7.02 721
7.08 734
7.14 734
7.2 710
7.26 733
7.32 702
7.38 735
7.44 696
7.5 688
7.56 724
7.62 695
7.68 699
7.74 658
7.8 697
7.86 687
7.92 672
7.98 681
8.04 649
8.1 707
8.16 685
8.22 651
8.28 708
8.34 718
8.4 679
8.46 696
8.52 709
8.58 725
8.64 663
8.7 703
8.76 729
8.82 737
8.88 676
8.94 761
9 704
9.06 727
9.12 834
9.18 906
9.24 935
9.3 997
9.36 1022
9.42 894
9.48 787
9.54 794
9.6 789
9.66 760
9.72 749
9.78 825
9.84 808
9.9 805
9.96 787
10.02 769
10.08 776
10.14 822
10.2 844
10.26 759
10.32 754
10.38 759
10.44 768
10.5 744
10.56 816
10.62 761
10.68 806
10.74 764
10.8 863
10.86 871
10.92 908
10.98 864
11.04 820
11.1 713
11.16 759
11.22 740
11.28 676
11.34 711
11.4 716
11.46 748
11.52 744
11.58 719
11.64 722
11.7 708
11.76 679
11.82 699
11.88 675
11.94 701
12 644
12.06 687
12.12 708
12.18 723
12.24 717
12.3 758
12.36 674
12.42 686
12.48 671
12.54 704
12.6 694
12.66 708
12.72 673
12.78 698
12.84 708
12.9 686
12.96 743
13.02 659
13.08 666
13.14 711
13.2 746
13.26 720
13.32 769
13.38 757
13.44 746
13.5 706
13.56 795
13.62 751
13.68 754
13.74 729
13.8 758
13.86 751
13.92 718
13.98 718
14.04 713
14.1 796
14.16 779
14.22 754
14.28 779
14.34 832
14.4 815
14.46 823
14.52 776
14.58 817
14.64 849
14.7 812
14.76 832
14.82 813
14.88 865
14.94 842
15 830
15.06 794
15.12 829
15.18 833
15.24 887
15.3 843
15.36 817
15.42 884
15.48 851
15.54 901
15.6 870
15.66 848
15.72 945
15.78 906
15.84 817
15.9 858
15.96 951
16.02 927
16.08 926
16.14 923
16.2 972
16.26 924
16.32 964
16.38 1025
16.44 989
16.5 1029
16.56 1016
16.62 1002
16.68 1022
16.74 1138
16.8 1106
16.86 1227
16.92 1512
16.98 1739
17.04 1485
17.1 1204
17.16 1137
17.22 1132
17.28 1151
17.34 1078
17.4 1166
17.46 1136
17.52 1160
17.58 1120
17.64 1117
17.7 1144
17.76 1148
17.82 1130
17.88 1204
17.94 1232
18 1227
18.06 1201
18.12 1211
18.18 1168
18.24 1216
18.3 1240
18.36 1247
18.42 1361
18.48 1294
18.54 1304
18.6 1248
18.66 1345
18.72 1327
18.78 1351
18.84 1351
18.9 1395
18.96 1394
19.02 1355
19.08 1460
19.14 1419
19.2 1495
19.26 1429
19.32 1448
19.38 1437
19.44 1482
19.5 1523
19.56 1544
19.62 1483
19.68 1361
19.74 1433
19.8 1516
19.86 1567
19.92 1515
19.98 1508
20 1472

File: 53-7.ASC
3 1656
3.06 1384
3.12 1315
3.18 1280
3.24 1219
3.3 1236
3.36 1239
3.42 1188
3.48 1129
3.54 1152
3.6 1160
3.66 1145
3.72 1066
3.78 1086
3.84 1119
3.9 1114
3.96 1068
4.02 1111
4.08 1115
4.14 1165
4.2 1081
4.26 1114
4.32 998
4.38 1045
4.44 947
4.5 966
4.56 1032
4.62 1002
4.68 999
4.74 1027
4.8 1079
4.86 1016
4.92 1049
4.98 1145
5.04 1175
5.1 1077
5.16 1122
5.22 1248
5.28 1273
5.34 1375
5.4 1569
5.46 1806
5.52 1931
5.58 1580
5.64 1708
5.7 1785
5.76 2109
5.82 2516
5.88 2249
5.94 1432
6 1070
6.06 885
6.12 871
6.18 857
6.24 883
6.3 880
6.36 837
6.42 753
6.48 836
6.54 828
6.6 782
6.66 840
6.72 867
6.78 895
6.84 919
6.9 823
6.96 725
7.02 717
7.08 693
7.14 675
7.2 718
7.26 665
7.32 694
7.38 649
7.44 687
7.5 674
7.56 646
7.62 684
7.68 624
7.74 684
7.8 681
7.86 645
7.92 644
7.98 704
8.04 683
8.1 669
8.16 722
8.22 702
8.28 712
8.34 686
8.4 717
8.46 679
8.52 717
8.58 703
8.64 689
8.7 703
8.76 687
8.82 742
8.88 694
8.94 737
9 737
9.06 760
9.12 784
9.18 798
9.24 878
9.3 1012
9.36 1098
9.42 1391
9.48 896
9.54 782
9.6 742
9.66 759
9.72 777
9.78 775
9.84 761
9.9 793
9.96 775
10.02 780
10.08 836
10.14 814
10.2 868
10.26 886
10.32 808
10.38 808
10.44 752
10.5 766
10.56 764
10.62 777
10.68 809
10.74 794
10.8 840
10.86 985
10.92 928
10.98 1035
11.04 1125
11.1 878
11.16 801
11.22 777
11.28 729
11.34 744
11.4 781
11.46 794
11.52 828
11.58 902
11.64 859
11.7 773
11.76 820
11.82 747
11.88 732
11.94 761
12 788
12.06 743
12.12 774
12.18 776
12.24 826
12.3 836
12.36 774
12.42 804
12.48 812
12.54 755
12.6 771
12.66 746
12.72 799
12.78 715
12.84 796
12.9 721
12.96 832
13.02 787
13.08 818
13.14 807
13.2 829
13.26 823
13.32 811
13.38 901
13.44 867
13.5 872
13.56 835
13.62 852
13.68 901
13.74 821
13.8 879
13.86 897
13.92 852
13.98 824
14.04 924
14.1 937
14.16 970
14.22 917
14.28 972
14.34 934
14.4 929
14.46 1039
14.52 970
14.58 940
14.64 957
14.7 949
14.76 979
14.82 988
14.88 1013
14.94 1031
15 1048
15.06 1001
15.12 1072
15.18 1038
15.24 1089
15.3 1057
15.36 1030
15.42 1063
15.48 1090
15.54 1097
15.6 1153
15.66 1092
15.72 1142
15.78 1062
15.84 1120
15.9 1149
15.96 1121
16.02 1134
16.08 1138
16.14 1160
16.2 1230
16.26 1170
16.32 1156
16.38 1332
16.44 1276
16.5 1327
16.56 1283
16.62 1295
16.68 1338
16.74 1317
16.8 1336
16.86 1396
16.92 1440
16.98 1794
17.04 2036
17.1 1995
17.16 1493
17.22 1412
17.28 1421
17.34 1453
17.4 1435
17.46 1464
17.52 1486
17.58 1485
17.64 1531
17.7 1535
17.76 1514
17.82 1569
17.88 1500
17.94 1547
18 1568
18.06 1571
18.12 1564
18.18 1551
18.24 1658
18.3 1601
18.36 1599
18.42 1670
18.48 1676
18.54 1736
18.6 1717
18.66 1756
18.72 1733
18.78 1796
18.84 1789
18.9 1737
18.96 1768
19.02 1822
19.08 1913
19.14 1904
19.2 1907
19.26 1924
19.32 1868
19.38 1906
19.44 1862
19.5 1971
19.56 2091
19.62 1958
19.68 1904
19.74 1896
19.8 1885
19.86 1905
19.92 1996
19.98 1964
20 1955

File: 53-9.ASC
3 1873
3.06 1654
3.12 1539
3.18 1439
3.24 1415
3.3 1369
3.36 1228
3.42 1254
3.48 1239
3.54 1164
3.6 1128
3.66 1135
3.72 1074
3.78 1055
3.84 1028
3.9 941
3.96 996
4.02 984
4.08 961
4.14 931
4.2 864
4.26 808
4.32 813
4.38 750
4.44 758
4.5 766
4.56 769
4.62 774
4.68 718
4.74 725
4.8 663
4.86 707
4.92 750
4.98 744
5.04 801
5.1 757
5.16 790
5.22 814
5.28 850
5.34 977
5.4 1057
5.46 1008
5.52 1008
5.58 1061
5.64 1158
5.7 1392
5.76 1621
5.82 1234
5.88 891
5.94 745
6 708
6.06 707
6.12 627
6.18 676
6.24 642
6.3 643
6.36 671
6.42 650
6.48 655
6.54 643
6.6 644
6.66 648
6.72 689
6.78 661
6.84 626
6.9 604
6.96 581
7.02 590
7.08 549
7.14 609
7.2 591
7.26 562
7.32 576
7.38 558
7.44 532
7.5 551
7.56 601
7.62 607
7.68 550
7.74 529
7.8 557
7.86 559
7.92 523
7.98 570
8.04 552
8.1 560
8.16 557
8.22 569
8.28 566
8.34 557
8.4 568
8.46 526
8.52 555
8.58 564
8.64 570
8.7 616
8.76 593
8.82 621
8.88 604
8.94 594
9 597
9.06 618
9.12 690
9.18 714
9.24 792
9.3 1013
9.36 907
9.42 633
9.48 618
9.54 583
9.6 627
9.66 605
9.72 610
9.78 610
9.84 620
9.9 638
9.96 595
10.02 622
10.08 670
10.14 682
10.2 686
10.26 601
10.32 652
10.38 598
10.44 607
10.5 617
10.56 615
10.62 640
10.68 714
10.74 720
10.8 711
10.86 826
10.92 903
10.98 792
11.04 638
11.1 610
11.16 586
11.22 598
11.28 658
11.34 610
11.4 668
11.46 685
11.52 657
11.58 565
11.64 644
11.7 622
11.76 561
11.82 603
11.88 589
11.94 590
12 621
12.06 621
12.12 620
12.18 613
12.24 603
12.3 652
12.36 634
12.42 614
12.48 586
12.54 648
12.6 602
12.66 590
12.72 571
12.78 630
12.84 618
12.9 608
12.96 608
13.02 594
13.08 598
13.14 630
13.2 660
13.26 632
13.32 694
13.38 640
13.44 668
13.5 643
13.56 663
13.62 656
13.68 640
13.74 642
13.8 673
13.86 653
13.92 673
13.98 649
14.04 696
14.1 708
14.16 698
14.22 716
14.28 700
14.34 678
14.4 735
14.46 664
14.52 697
14.58 683
14.64 691
14.7 758
14.76 772
14.82 767
14.88 725
14.94 774
15 732
15.06 751
15.12 730
15.18 784
15.24 777
15.3 763
15.36 784
15.42 795
15.48 804
15.54 772
15.6 802
15.66 807
15.72 820
15.78 815
15.84 789
15.9 803
15.96 820
16.02 820
16.08 859
16.14 847
16.2 861
16.26 921
16.32 867
16.38 895
16.44 904
16.5 894
16.56 872
16.62 945
16.68 910
16.74 942
16.8 928
16.86 981
16.92 1017
16.98 1013
17.04 950
17.1 974
17.16 966
17.22 980
17.28 1024
17.34 998
17.4 993
17.46 1010
17.52 1002
17.58 987
17.64 1017
17.7 1018
17.76 1056
17.82 1109
17.88 1036
17.94 1085
18 1055
18.06 1100
18.12 1116
18.18 1111
18.24 1095
18.3 1121
18.36 1156
18.42 1112
18.48 1190
18.54 1137
18.6 1174
18.66 1155
18.72 1210
18.78 1233
18.84 1184
18.9 1232
18.96 1213
19.02 1317
19.08 1360
19.14 1304
19.2 1282
19.26 1282
19.32 1302
19.38 1356
19.44 1395
19.5 1339
19.56 1409
19.62 1343
19.68 1309
19.74 1313
19.8 1344
19.86 1369
19.92 1409
19.98 1330
20 1249

File: 53-10.ASC
3 2088
3.06 1998
3.12 1699
3.18 1577
3.24 1509
3.3 1572
3.36 1523
3.42 1494
3.48 1364
3.54 1374
3.6 1356
3.66 1360
3.72 1240
3.78 1226
3.84 1201
3.9 1152
3.96 1252
4.02 1127
4.08 1147
4.14 1098
4.2 1075
4.26 979
4.32 1021
4.38 955
4.44 895
4.5 931
4.56 931
4.62 934
4.68 915
4.74 910
4.8 915
4.86 911
4.92 865
4.98 909
5.04 923
5.1 993
5.16 996
5.22 1107
5.28 1066
5.34 1140
5.4 1266
5.46 1574
5.52 1363
5.58 1335
5.64 1363
5.7 1531
5.76 1739
5.82 1998
5.88 1548
5.94 942
6 799
6.06 705
6.12 715
6.18 661
6.24 699
6.3 651
6.36 656
6.42 649
6.48 647
6.54 653
6.6 653
6.66 716
6.72 717
6.78 675
6.84 694
6.9 620
6.96 592
7.02 549
7.08 551
7.14 574
7.2 567
7.26 526
7.32 543
7.38 560
7.44 610
7.5 547
7.56 546
7.62 518
7.68 528
7.74 540
7.8 512
7.86 574
7.92 532
7.98 564
8.04 546
8.1 552
8.16 559
8.22 563
8.28 592
8.34 604
8.4 598
8.46 554
8.52 548
8.58 576
8.64 526
8.7 561
8.76 548
8.82 565
8.88 600
8.94 581
9 588
9.06 622
9.12 601
9.18 664
9.24 738
9.3 831
9.36 1059
9.42 1041
9.48 657
9.54 627
9.6 599
9.66 602
9.72 615
9.78 643
9.84 621
9.9 618
9.96 591
10.02 646
10.08 614
10.14 711
10.2 743
10.26 678
10.32 647
10.38 600
10.44 559
10.5 597
10.56 585
10.62 621
10.68 655
10.74 632
10.8 757
10.86 799
10.92 783
10.98 868
11.04 807
11.1 625
11.16 659
11.22 556
11.28 587
11.34 556
11.4 599
11.46 627
11.52 587
11.58 637
11.64 645
11.7 601
11.76 557
11.82 543
11.88 540
11.94 595
12 570
12.06 594
12.12 602
12.18 590
12.24 588
12.3 626
12.36 627
12.42 621
12.48 573
12.54 600
12.6 581
12.66 580
12.72 559
12.78 561
12.84 615
12.9 574
12.96 608
13.02 585
13.08 566
13.14 604
13.2 586
13.26 620
13.32 598
13.38 656
13.44 650
13.5 637
13.56 576
13.62 626
13.68 577
13.74 616
13.8 658
13.86 579
13.92 612
13.98 627
14.04 612
14.1 642
14.16 653
14.22 630
14.28 689
14.34 697
14.4 695
14.46 683
14.52 676
14.58 735
14.64 717
14.7 675
14.76 718
14.82 729
14.88 735
14.94 684
15 758
15.06 761
15.12 735
15.18 764
15.24 780
15.3 763
15.36 711
15.42 763
15.48 735
15.54 774
15.6 710
15.66 767
15.72 748
15.78 774
15.84 803
15.9 816
15.96 748
16.02 829
16.08 777
16.14 838
16.2 797
16.26 822
16.32 894
16.38 844
16.44 858
16.5 870
16.56 876
16.62 876
16.68 905
16.74 872
16.8 929
16.86 957
16.92 1338
16.98 1540
17.04 1375
17.1 1017
17.16 1006
17.22 984
17.28 967
17.34 996
17.4 982
17.46 970
17.52 994
17.58 1009
17.64 1028
17.7 1007
17.76 1046
17.82 1090
17.88 1073
17.94 1064
18 1050
18.06 1087
18.12 1044
18.18 1098
18.24 1105
18.3 1121
18.36 1140
18.42 1048
18.48 1080
18.54 1137
18.6 1216
18.66 1214
18.72 1227
18.78 1207
18.84 1271
18.9 1196
18.96 1231
19.02 1257
19.08 1408
19.14 1394
19.2 1344
19.26 1295
19.32 1327
19.38 1334
19.44 1371
19.5 1396
19.56 1476
19.62 1406
19.68 1379
19.74 1309
19.8 1365
19.86 1367
19.92 1406
19.98 1437
20 1484

File: 53-11.ASC
3 1646
3.06 1483
3.12 1356
3.18 1326
3.24 1279
3.3 1271
3.36 1261
3.42 1198
3.48 1129
3.54 1111
3.6 1075
3.66 1061
3.72 970
3.78 1022
3.84 1026
3.9 1073
3.96 1042
4.02 1042
4.08 1092
4.14 1064
4.2 1020
4.26 935
4.32 924
4.38 815
4.44 834
4.5 824
4.56 805
4.62 780
4.68 831
4.74 782
4.8 781
4.86 834
4.92 811
4.98 820
5.04 895
5.1 923
5.16 1067
5.22 1088
5.28 1247
5.34 1442
5.4 1705
5.46 2329
5.52 2120
5.58 1782
5.64 1838
5.7 2114
5.76 2708
5.82 3163
5.88 2280
5.94 1206
6 900
6.06 806
6.12 740
6.18 701
6.24 691
6.3 674
6.36 658
6.42 697
6.48 643
6.54 652
6.6 690
6.66 708
6.72 810
6.78 757
6.84 755
6.9 708
6.96 624
7.02 587
7.08 577
7.14 595
7.2 591
7.26 598
7.32 581
7.38 568
7.44 586
7.5 557
7.56 579
7.62 583
7.68 578
7.74 578
7.8 587
7.86 585
7.92 550
7.98 586
8.04 597
8.1 599
8.16 594
8.22 603
8.28 634
8.34 600
8.4 583
8.46 604
8.52 560
8.58 561
8.64 606
8.7 569
8.76 598
8.82 581
8.88 587
8.94 592
9 621
9.06 646
9.12 731
9.18 752
9.24 806
9.3 1035
9.36 1324
9.42 1441
9.48 753
9.54 656
9.6 628
9.66 578
9.72 625
9.78 600
9.84 631
9.9 674
9.96 589
10.02 661
10.08 663
10.14 737
10.2 748
10.26 785
10.32 677
10.38 668
10.44 626
10.5 615
10.56 633
10.62 717
10.68 627
10.74 742
10.8 832
10.86 937
10.92 944
10.98 1070
11.04 1012
11.1 688
11.16 679
11.22 635
11.28 622
11.34 637
11.4 711
11.46 693
11.52 722
11.58 726
11.64 754
11.7 668
11.76 637
11.82 638
11.88 644
11.94 607
12 652
12.06 648
12.12 667
12.18 703
12.24 778
12.3 709
12.36 691
12.42 688
12.48 684
12.54 613
12.6 622
12.66 657
12.72 657
12.78 683
12.84 649
12.9 706
12.96 597
13.02 691
13.08 650
13.14 679
13.2 681
13.26 706
13.32 711
13.38 740
13.44 718
13.5 736
13.56 761
13.62 720
13.68 712
13.74 731
13.8 701
13.86 750
13.92 749
13.98 767
14.04 719
14.1 753
14.16 707
14.22 754
14.28 752
14.34 809
14.4 836
14.46 780
14.52 810
14.58 771
14.64 799
14.7 763
14.76 792
14.82 860
14.88 877
14.94 826
15 858
15.06 827
15.12 853
15.18 816
15.24 869
15.3 881
15.36 885
15.42 890
15.48 925
15.54 902
15.6 894
15.66 887
15.72 887
15.78 885
15.84 958
15.9 942
15.96 940
16.02 930
16.08 928
16.14 982
16.2 1020
16.26 1047
16.32 1027
16.38 1016
16.44 970
16.5 1049
16.56 1004
16.62 1067
16.68 1052
16.74 1076
16.8 1104
16.86 1126
16.92 1170
16.98 1364
17.04 1305
17.1 1165
17.16 1103
17.22 1172
17.28 1204
17.34 1193
17.4 1243
17.46 1231
17.52 1279
17.58 1242
17.64 1198
17.7 1190
17.76 1335
17.82 1279
17.88 1260
17.94 1358
18 1274
18.06 1314
18.12 1346
18.18 1342
18.24 1336
18.3 1354
18.36 1305
18.42 1357
18.48 1441
18.54 1410
18.6 1400
18.66 1417
18.72 1494
18.78 1527
18.84 1502
18.9 1494
18.96 1567
19.02 1605
19.08 1590
19.14 1671
19.2 1696
19.26 1717
19.32 1699
19.38 1594
19.44 1726
19.5 1742
19.56 1838
19.62 1823
19.68 1700
19.74 1648
19.8 1680
19.86 1676
19.92 1676
19.98 1669
20 1733

File: 75-24.ASC
3 1326
3.06 1213
3.12 1216
3.18 1148
3.24 1091
3.3 1112
3.36 1039
3.42 1029
3.48 1013
3.54 947
3.6 972
3.66 899
3.72 929
3.78 888
3.84 888
3.9 825
3.96 841
4.02 751
4.08 834
4.14 825
4.2 808
4.26 797
4.32 799
4.38 807
4.44 773
4.5 751
4.56 765
4.62 751
4.68 766
4.74 760
4.8 766
4.86 731
4.92 749
4.98 799
5.04 832
5.1 807
5.16 841
5.22 963
5.28 981
5.34 984
5.4 1085
5.46 1193
5.52 1344
5.58 1563
5.64 1844
5.7 2417
5.76 3735
5.82 2203
5.88 941
5.94 849
6 837
6.06 887
6.12 884
6.18 865
6.24 811
6.3 904
6.36 957
6.42 1029
6.48 1189
6.54 1432
6.6 1764
6.66 2289
6.72 1042
6.78 810
6.84 744
6.9 736
6.96 728
7.02 696
7.08 695
7.14 680
7.2 701
7.26 667
7.32 709
7.38 655
7.44 687
7.5 660
7.56 703
7.62 659
7.68 683
7.74 659
7.8 670
7.86 658
7.92 693
7.98 661
8.04 669
8.1 671
8.16 669
8.22 714
8.28 674
8.34 665
8.4 664
8.46 654
8.52 674
8.58 704
8.64 679
8.7 665
8.76 664
8.82 677
8.88 681
8.94 709
9 687
9.06 740
9.12 834
9.18 871
9.24 1029
9.3 1349
9.36 1787
9.42 1473
9.48 825
9.54 686
9.6 729
9.66 705
9.72 701
9.78 657
9.84 675
9.9 700
9.96 720
10.02 706
10.08 685
10.14 660
10.2 703
10.26 667
10.32 720
10.38 694
10.44 762
10.5 715
10.56 748
10.62 735
10.68 807
10.74 888
10.8 938
10.86 1052
10.92 1295
10.98 1871
11.04 1256
11.1 786
11.16 757
11.22 806
11.28 804
11.34 871
11.4 989
11.46 1247
11.52 1073
11.58 792
11.64 761
11.7 713
11.76 698
11.82 732
11.88 737
11.94 720
12 729
12.06 762
12.12 758
12.18 744
12.24 767
12.3 740
12.36 752
12.42 720
12.48 705
12.54 679
12.6 777
12.66 771
12.72 768
12.78 762
12.84 760
12.9 769
12.96 789
13.02 759
13.08 765
13.14 828
13.2 889
13.26 969
13.32 886
13.38 788
13.44 796
13.5 772
13.56 823
13.62 830
13.68 814
13.74 796
13.8 801
13.86 773
13.92 857
13.98 861
14.04 896
14.1 831
14.16 881
14.22 814
14.28 891
14.34 929
14.4 1067
14.46 1054
14.52 871
14.58 907
14.64 961
14.7 917
14.76 884
14.82 967
14.88 942
14.94 974
15 929
15.06 971
15.12 964
15.18 1004
15.24 998
15.3 953
15.36 1032
15.42 1018
15.48 1043
15.54 1012
15.6 1034
15.66 1025
15.72 1030
15.78 1032
15.84 1013
15.9 1090
15.96 1086
16.02 1084
16.08 1086
16.14 1130
16.2 1151
16.26 1119
16.32 1203
16.38 1191
16.44 1161
16.5 1200
16.56 1321
16.62 1192
16.68 1204
16.74 1230
16.8 1198
16.86 1281
16.92 1304
16.98 1279
17.04 1284
17.1 1315
17.16 1430
17.22 1485
17.28 1460
17.34 1367
17.4 1332
17.46 1412
17.52 1393
17.58 1440
17.64 1484
17.7 1453
17.76 1451
17.82 1451
17.88 1527
17.94 1542
18 1511
18.06 1494
18.12 1474
18.18 1545
18.24 1545
18.3 1512
18.36 1627
18.42 1600
18.48 1556
18.54 1693
18.6 1640
18.66 1647
18.72 1610
18.78 1619
18.84 1662
18.9 1660
18.96 1678
19.02 1693
19.08 1727
19.14 1726
19.2 1721
19.26 1770
19.32 1713
19.38 1790
19.44 1884
19.5 2004
19.56 2276
19.62 2407
19.68 2068
19.74 1976
19.8 2164
19.86 2582
19.92 2430
19.98 1964
20 1915

File: 76-8.ASC
3 1319
3.06 1308
3.12 1245
3.18 1166
3.24 1046
3.3 1064
3.36 1048
3.42 1017
3.48 979
3.54 952
3.6 908
3.66 917
3.72 880
3.78 851
3.84 817
3.9 803
3.96 814
4.02 830
4.08 720
4.14 753
4.2 713
4.26 716
4.32 655
4.38 717
4.44 671
4.5 651
4.56 718
4.62 683
4.68 690
4.74 688
4.8 685
4.86 681
4.92 733
4.98 704
5.04 776
5.1 817
5.16 889
5.22 983
5.28 1039
5.34 1054
5.4 1284
5.46 1507
5.52 1884
5.58 2570
5.64 3316
5.7 5023
5.76 9841
5.82 2393
5.88 973
5.94 867
6 798
6.06 810
6.12 810
6.18 863
6.24 916
6.3 1018
6.36 1136
6.42 1321
6.48 1588
6.54 2018
6.6 3251
6.66 3800
6.72 874
6.78 715
6.84 658
6.9 624
6.96 618
7.02 624
7.08 599
7.14 602
7.2 584
7.26 571
7.32 552
7.38 594
7.44 582
7.5 554
7.56 603
7.62 607
7.68 546
7.74 544
7.8 636
7.86 534
7.92 600
7.98 549
8.04 567
8.1 601
8.16 602
8.22 529
8.28 569
8.34 587
8.4 580
8.46 592
8.52 585
8.58 587
8.64 608
8.7 609
8.76 628
8.82 599
8.88 618
8.94 628
9 687
9.06 834
9.12 879
9.18 1090
9.24 1363
9.3 2041
9.36 3636
9.42 1674
9.48 651
9.54 605
9.6 623
9.66 607
9.72 594
9.78 553
9.84 598
9.9 591
9.96 583
10.02 563
10.08 576
10.14 572
10.2 611
10.26 566
10.32 589
10.38 616
10.44 588
10.5 577
10.56 684
10.62 690
10.68 768
10.74 850
10.8 1071
10.86 1276
10.92 2070
10.98 3296
11.04 1356
11.1 699
11.16 714
11.22 723
11.28 792
11.34 929
11.4 1309
11.46 2287
11.52 1183
11.58 636
11.64 593
11.7 582
11.76 623
11.82 618
11.88 621
11.94 579
12 608
12.06 591
12.12 565
12.18 563
12.24 615
12.3 573
12.36 603
12.42 632
12.48 622
12.54 590
12.6 576
12.66 588
12.72 626
12.78 620
12.84 636
12.9 618
12.96 686
13.02 692
13.08 682
13.14 795
13.2 941
13.26 1021
13.32 693
13.38 625
13.44 631
13.5 625
13.56 653
13.62 656
13.68 660
13.74 632
13.8 617
13.86 635
13.92 597
13.98 650
14.04 650
14.1 709
14.16 718
14.22 682
14.28 710
14.34 825
14.4 1072
14.46 948
14.52 730
14.58 690
14.64 695
14.7 738
14.76 741
14.82 791
14.88 705
14.94 678
15 709
15.06 732
15.12 712
15.18 748
15.24 737
15.3 737
15.36 756
15.42 758
15.48 749
15.54 760
15.6 743
15.66 742
15.72 757
15.78 770
15.84 759
15.9 804
15.96 805
16.02 727
16.08 771
16.14 777
16.2 812
16.26 817
16.32 824
16.38 844
16.44 799
16.5 852
16.56 833
16.62 827
16.68 896
16.74 976
16.8 1030
16.86 1149
16.92 1455
16.98 1960
17.04 1555
17.1 1082
17.16 1218
17.22 1337
17.28 1029
17.34 973
17.4 982
17.46 994
17.52 951
17.58 920
17.64 986
17.7 1037
17.76 971
17.82 994
17.88 1063
17.94 1049
18 1087
18.06 1035
18.12 1089
18.18 1017
18.24 1072
18.3 1078
18.36 1037
18.42 1113
18.48 1105
18.54 1115
18.6 1061
18.66 1132
18.72 1112
18.78 1171
18.84 1139
18.9 1166
18.96 1191
19.02 1243
19.08 1129
19.14 1155
19.2 1171
19.26 1214
19.32 1133
19.38 1284
19.44 1312
19.5 1536
19.56 2009
19.62 2400
19.68 1688
19.74 1583
19.8 1980
19.86 2976
19.92 2566
19.98 1535
20 1326

File: 77-1.ASC
3 824
3.06 754
3.12 749
3.18 733
3.24 717
3.3 713
3.36 709
3.42 694
3.48 665
3.54 661
3.6 632
3.66 629
3.72 592
3.78 595
3.84 595
3.9 621
3.96 610
4.02 603
4.08 586
4.14 546
4.2 582
4.26 546
4.32 532
4.38 459
4.44 484
4.5 463
4.56 480
4.62 471
4.68 480
4.74 438
4.8 467
4.86 420
4.92 415
4.98 466
5.04 457
5.1 495
5.16 467
5.22 470
5.28 491
5.34 526
5.4 501
5.46 554
5.52 625
5.58 640
5.64 772
5.7 912
5.76 1024
5.82 1376
5.88 1554
5.94 654
6 523
6.06 479
6.12 483
6.18 470
6.24 470
6.3 492
6.36 504
6.42 527
6.48 540
6.54 579
6.6 685
6.66 750
6.72 923
6.78 904
6.84 525
6.9 464
6.96 429
7.02 434
7.08 450
7.14 420
7.2 437
7.26 430
7.32 392
7.38 447
7.44 455
7.5 403
7.56 411
7.62 416
7.68 430
7.74 440
7.8 430
7.86 403
7.92 399
7.98 417
8.04 441
8.1 413
8.16 396
8.22 443
8.28 392
8.34 406
8.4 416
8.46 427
8.52 417
8.58 399
8.64 428
8.7 402
8.76 386
8.82 410
8.88 429
8.94 408
9 450
9.06 393
9.12 439
9.18 425
9.24 471
9.3 531
9.36 583
9.42 676
9.48 786
9.54 528
9.6 413
9.66 405
9.72 387
9.78 438
9.84 402
9.9 412
9.96 424
10.02 427
10.08 398
10.14 409
10.2 455
10.26 396
10.32 422
10.38 416
10.44 410
10.5 416
10.56 421
10.62 421
10.68 434
10.74 433
10.8 445
10.86 483
10.92 516
10.98 575
11.04 664
11.1 723
11.16 481
11.22 430
11.28 467
11.34 433
11.4 456
11.46 490
11.52 529
11.58 584
11.64 457
11.7 384
11.76 392
11.82 380
11.88 407
11.94 410
12 445
12.06 380
12.12 421
12.18 430
12.24 424
12.3 426
12.36 411
12.42 410
12.48 440
12.54 488
12.6 396
12.66 438
12.72 410
12.78 426
12.84 421
12.9 414
12.96 406
13.02 459
13.08 480
13.14 483
13.2 446
13.26 472
13.32 476
13.38 464
13.44 457
13.5 476
13.56 470
13.62 466
13.68 503
13.74 493
13.8 478
13.86 475
13.92 459
13.98 490
14.04 466
14.1 497
14.16 489
14.22 491
14.28 488
14.34 532
14.4 519
14.46 527
14.52 551
14.58 510
14.64 504
14.7 538
14.76 527
14.82 529
14.88 538
14.94 555
15 578
15.06 520
15.12 537
15.18 558
15.24 563
15.3 565
15.36 538
15.42 598
15.48 606
15.54 561
15.6 584
15.66 563
15.72 625
15.78 638
15.84 621
15.9 662
15.96 609
16.02 644
16.08 664
16.14 609
16.2 658
16.26 678
16.32 681
16.38 655
16.44 658
16.5 673
16.56 730
16.62 703
16.68 656
16.74 739
16.8 741
16.86 749
16.92 792
16.98 752
17.04 756
17.1 773
17.16 818
17.22 769
17.28 818
17.34 829
17.4 842
17.46 877
17.52 783
17.58 840
17.64 818
17.7 814
17.76 837
17.82 881
17.88 869
17.94 903
18 879
18.06 925
18.12 919
18.18 914
18.24 926
18.3 960
18.36 1012
18.42 993
18.48 984
18.54 1003
18.6 959
18.66 984
18.72 1012
18.78 1055
18.84 1054
18.9 1071
18.96 1084
19.02 1058
19.08 1161
19.14 1169
19.2 1124
19.26 1134
19.32 1166
19.38 1123
19.44 1234
19.5 1153
19.56 1149
19.62 1224
19.68 1276
19.74 1299
19.8 1296
19.86 1275
19.92 1328
19.98 1377
20 1349

File: 77-5.ASC
3 1066
3.06 1048
3.12 966
3.18 946
3.24 896
3.3 955
3.36 858
3.42 877
3.48 799
3.54 794
3.6 769
3.66 803
3.72 780
3.78 750
3.84 706
3.9 701
3.96 693
4.02 678
4.08 657
4.14 624
4.2 669
4.26 580
4.32 618
4.38 649
4.44 622
4.5 603
4.56 615
4.62 603
4.68 618
4.74 601
4.8 617
4.86 610
4.92 687
4.98 645
5.04 677
5.1 763
5.16 818
5.22 850
5.28 879
5.34 1030
5.4 1192
5.46 1336
5.52 1617
5.58 2008
5.64 2441
5.7 3409
5.76 6492
5.82 2020
5.88 877
5.94 767
6 684
6.06 722
6.12 735
6.18 792
6.24 787
6.3 850
6.36 1009
6.42 1150
6.48 1360
6.54 1706
6.6 2465
6.66 3940
6.72 837
6.78 610
6.84 614
6.9 589
6.96 576
7.02 546
7.08 559
7.14 518
7.2 558
7.26 527
7.32 548
7.38 533
7.44 556
7.5 512
7.56 511
7.62 532
7.68 529
7.74 540
7.8 502
7.86 491
7.92 524
7.98 519
8.04 521
8.1 537
8.16 511
8.22 536
8.28 525
8.34 483
8.4 507
8.46 560
8.52 539
8.58 538
8.64 516
8.7 539
8.76 525
8.82 482
8.88 605
8.94 599
9 658
9.06 704
9.12 762
9.18 859
9.24 1070
9.3 1517
9.36 2588
9.42 1455
9.48 598
9.54 596
9.6 565
9.66 589
9.72 581
9.78 550
9.84 577
9.9 572
9.96 526
10.02 558
10.08 521
10.14 553
10.2 572
10.26 586
10.32 595
10.38 560
10.44 641
10.5 579
10.56 606
10.62 630
10.68 722
10.74 761
10.8 920
10.86 1107
10.92 1528
10.98 2686
11.04 1304
11.1 670
11.16 665
11.22 690
11.28 716
11.34 854
11.4 1016
11.46 1540
11.52 1020
11.58 621
11.64 575
11.7 542
11.76 624
11.82 620
11.88 614
11.94 593
12 622
12.06 609
12.12 619
12.18 587
12.24 636
12.3 662
12.36 618
12.42 644
12.48 615
12.54 625
12.6 691
12.66 635
12.72 668
12.78 622
12.84 675
12.9 674
12.96 673
13.02 664
13.08 718
13.14 817
13.2 878
13.26 1003
13.32 665
13.38 704
13.44 692
13.5 713
13.56 637
13.62 694
13.68 723
13.74 667
13.8 726
13.86 698
13.92 742
13.98 772
14.04 701
14.1 714
14.16 803
14.22 817
14.28 812
14.34 797
14.4 918
14.46 1017
14.52 785
14.58 808
14.64 830
14.7 809
14.76 829
14.82 856
14.88 810
14.94 804
15 802
15.06 791
15.12 821
15.18 839
15.24 834
15.3 850
15.36 867
15.42 879
15.48 841
15.54 862
15.6 927
15.66 866
15.72 891
15.78 912
15.84 857
15.9 848
15.96 914
16.02 845
16.08 956
16.14 934
16.2 915
16.26 947
16.32 970
16.38 972
16.44 999
16.5 1039
16.56 977
16.62 1001
16.68 1031
16.74 1039
16.8 1023
16.86 1080
16.92 1069
16.98 1081
17.04 1174
17.1 1159
17.16 1215
17.22 1412
17.28 1165
17.34 1195
17.4 1112
17.46 1166
17.52 1217
17.58 1198
17.64 1145
17.7 1210
17.76 1212
17.82 1210
17.88 1230
17.94 1231
18 1204
18.06 1398
18.12 1253
18.18 1273
18.24 1285
18.3 1236
18.36 1323
18.42 1292
18.48 1352
18.54 1365
18.6 1335
18.66 1323
18.72 1357
18.78 1392
18.84 1330
18.9 1375
18.96 1394
19.02 1385
19.08 1414
19.14 1420
19.2 1468
19.26 1454
19.32 1478
19.38 1493
19.44 1538
19.5 1692
19.56 1900
19.62 2247
19.68 1761
19.74 1702
19.8 1847
19.86 2431
19.92 2251
19.98 1642
20 1527