Folder: CPC-code/xrd-UiO-67/pxrddata (part 4)

File: 6-12.ASC
3 2160
3.06 1729
3.12 1481
3.18 1434
3.24 1393
3.3 1318
3.36 1289
3.42 1244
3.48 1242
3.54 1141
3.6 1133
3.66 1156
3.72 1165
3.78 1071
3.84 1029
3.9 1036
3.96 1002
4.02 1018
4.08 969
4.14 933
4.2 932
4.26 880
4.32 899
4.38 900
4.44 883
4.5 896
4.56 865
4.62 886
4.68 853
4.74 816
4.8 785
4.86 753
4.92 831
4.98 776
5.04 804
5.1 819
5.16 771
5.22 772
5.28 814
5.34 764
5.4 736
5.46 748
5.52 737
5.58 759
5.64 737
5.7 724
5.76 735
5.82 765
5.88 768
5.94 742
6 736
6.06 725
6.12 776
6.18 740
6.24 775
6.3 743
6.36 758
6.42 736
6.48 761
6.54 754
6.6 730
6.66 724
6.72 774
6.78 745
6.84 795
6.9 729
6.96 802
7.02 712
7.08 743
7.14 765
7.2 753
7.26 774
7.32 783
7.38 842
7.44 788
7.5 728
7.56 723
7.62 756
7.68 810
7.74 793
7.8 749
7.86 798
7.92 704
7.98 803
8.04 789
8.1 755
8.16 768
8.22 722
8.28 745
8.34 700
8.4 729
8.46 787
8.52 761
8.58 802
8.64 792
8.7 836
8.76 820
8.82 771
8.88 770
8.94 851
9 831
9.06 814
9.12 808
9.18 859
9.24 756
9.3 787
9.36 773
9.42 763
9.48 782
9.54 709
9.6 729
9.66 726
9.72 680
9.78 710
9.84 687
9.9 695
9.96 719
10.02 772
10.08 711
10.14 681
10.2 738
10.26 777
10.32 700
10.38 685
10.44 726
10.5 713
10.56 737
10.62 729
10.68 769
10.74 692
10.8 722
10.86 753
10.92 757
10.98 707
11.04 744
11.1 700
11.16 688
11.22 750
11.28 775
11.34 659
11.4 713
11.46 732
11.52 743
11.58 720
11.64 730
11.7 734
11.76 737
11.82 746
11.88 739
11.94 755
12 747
12.06 739
12.12 757
12.18 767
12.24 727
12.3 732
12.36 741
12.42 724
12.48 728
12.54 788
12.6 824
12.66 768
12.72 728
12.78 731
12.84 764
12.9 803
12.96 813
13.02 781
13.08 769
13.14 781
13.2 727
13.26 789
13.32 712
13.38 805
13.44 751
13.5 772
13.56 812
13.62 814
13.68 782
13.74 808
13.8 817
13.86 761
13.92 782
13.98 779
14.04 798
14.1 837
14.16 805
14.22 813
14.28 811
14.34 821
14.4 851
14.46 857
14.52 810
14.58 811
14.64 803
14.7 860
14.76 849
14.82 852
14.88 860
14.94 844
15 879
15.06 836
15.12 900
15.18 897
15.24 861
15.3 952
15.36 904
15.42 917
15.48 922
15.54 919
15.6 946
15.66 960
15.72 957
15.78 948
15.84 964
15.9 1010
15.96 955
16.02 996
16.08 1016
16.14 996
16.2 1039
16.26 1029
16.32 1005
16.38 1083
16.44 1070
16.5 1077
16.56 1045
16.62 1067
16.68 1056
16.74 1108
16.8 1112
16.86 1184
16.92 1269
16.98 1260
17.04 1425
17.1 1464
17.16 1570
17.22 1492
17.28 1225
17.34 1227
17.4 1254
17.46 1193
17.52 1265
17.58 1235
17.64 1230
17.7 1324
17.76 1252
17.82 1246
17.88 1284
17.94 1336
18 1378
18.06 1378
18.12 1379
18.18 1333
18.24 1419
18.3 1353
18.36 1414
18.42 1470
18.48 1445
18.54 1421
18.6 1444
18.66 1458
18.72 1511
18.78 1569
18.84 1526
18.9 1607
18.96 1498
19.02 1590
19.08 1553
19.14 1565
19.2 1626
19.26 1548
19.32 1633
19.38 1587
19.44 1698
19.5 1730
19.56 1702
19.62 1768
19.68 1742
19.74 1817
19.8 1750
19.86 1681
19.92 1793
19.98 1812
20 1821

File: 6-13.ASC
3 2066
3.06 1683
3.12 1488
3.18 1531
3.24 1408
3.3 1345
3.36 1372
3.42 1406
3.48 1359
3.54 1357
3.6 1314
3.66 1321
3.72 1287
3.78 1259
3.84 1247
3.9 1239
3.96 1308
4.02 1311
4.08 1292
4.14 1284
4.2 1290
4.26 1296
4.32 1311
4.38 1295
4.44 1347
4.5 1338
4.56 1378
4.62 1382
4.68 1370
4.74 1284
4.8 1425
4.86 1383
4.92 1397
4.98 1388
5.04 1403
5.1 1397
5.16 1296
5.22 1467
5.28 1452
5.34 1390
5.4 1503
5.46 1344
5.52 1452
5.58 1354
5.64 1357
5.7 1421
5.76 1359
5.82 1344
5.88 1359
5.94 1262
6 1269
6.06 1225
6.12 1272
6.18 1200
6.24 1172
6.3 1244
6.36 1130
6.42 1199
6.48 1083
6.54 1045
6.6 1069
6.66 1113
6.72 1041
6.78 1036
6.84 1004
6.9 1010
6.96 1049
7.02 1005
7.08 957
7.14 973
7.2 986
7.26 906
7.32 996
7.38 932
7.44 918
7.5 949
7.56 954
7.62 941
7.68 950
7.74 962
7.8 877
7.86 894
7.92 908
7.98 891
8.04 885
8.1 901
8.16 911
8.22 920
8.28 904
8.34 944
8.4 887
8.46 870
8.52 851
8.58 875
8.64 826
8.7 830
8.76 907
8.82 897
8.88 962
8.94 886
9 886
9.06 861
9.12 859
9.18 889
9.24 838
9.3 922
9.36 866
9.42 850
9.48 954
9.54 895
9.6 928
9.66 961
9.72 890
9.78 926
9.84 902
9.9 936
9.96 923
10.02 960
10.08 956
10.14 884
10.2 928
10.26 893
10.32 877
10.38 942
10.44 926
10.5 894
10.56 857
10.62 865
10.68 939
10.74 907
10.8 915
10.86 978
10.92 849
10.98 920
11.04 927
11.1 917
11.16 917
11.22 923
11.28 929
11.34 934
11.4 910
11.46 924
11.52 932
11.58 897
11.64 897
11.7 943
11.76 842
11.82 936
11.88 924
11.94 947
12 929
12.06 869
12.12 952
12.18 886
12.24 931
12.3 928
12.36 931
12.42 910
12.48 946
12.54 960
12.6 946
12.66 986
12.72 922
12.78 968
12.84 915
12.9 910
12.96 967
13.02 992
13.08 941
13.14 1000
13.2 992
13.26 991
13.32 947
13.38 1001
13.44 980
13.5 1019
13.56 974
13.62 973
13.68 960
13.74 1000
13.8 976
13.86 1045
13.92 1038
13.98 1041
14.04 1036
14.1 1065
14.16 1009
14.22 1080
14.28 1113
14.34 1057
14.4 1085
14.46 1101
14.52 1061
14.58 1083
14.64 1105
14.7 1037
14.76 1064
14.82 1124
14.88 1103
14.94 1099
15 1071
15.06 1117
15.12 1115
15.18 1110
15.24 1142
15.3 1115
15.36 1149
15.42 1055
15.48 1108
15.54 1199
15.6 1165
15.66 1171
15.72 1161
15.78 1109
15.84 1213
15.9 1201
15.96 1216
16.02 1256
16.08 1209
16.14 1202
16.2 1265
16.26 1221
16.32 1214
16.38 1280
16.44 1263
16.5 1250
16.56 1255
16.62 1315
16.68 1260
16.74 1303
16.8 1355
16.86 1366
16.92 1468
16.98 1384
17.04 1430
17.1 1375
17.16 1364
17.22 1381
17.28 1413
17.34 1413
17.4 1406
17.46 1479
17.52 1409
17.58 1502
17.64 1518
17.7 1450
17.76 1514
17.82 1494
17.88 1492
17.94 1501
18 1521
18.06 1503
18.12 1521
18.18 1560
18.24 1590
18.3 1609
18.36 1609
18.42 1615
18.48 1586
18.54 1654
18.6 1689
18.66 1685
18.72 1645
18.78 1611
18.84 1677
18.9 1637
18.96 1699
19.02 1698
19.08 1764
19.14 1742
19.2 1718
19.26 1813
19.32 1695
19.38 1738
19.44 1800
19.5 1786
19.56 1764
19.62 1847
19.68 1772
19.74 1855
19.8 1821
19.86 1810
19.92 1858
19.98 1865
20 1888

File: 6-16.ASC
3 2278
3.06 1871
3.12 1744
3.18 1566
3.24 1519
3.3 1547
3.36 1587
3.42 1544
3.48 1503
3.54 1506
3.6 1540
3.66 1500
3.72 1514
3.78 1461
3.84 1548
3.9 1654
3.96 1734
4.02 1933
4.08 1970
4.14 2039
4.2 1704
4.26 1398
4.32 1280
4.38 1254
4.44 1186
4.5 1189
4.56 1206
4.62 1187
4.68 1241
4.74 1277
4.8 1343
4.86 1342
4.92 1473
4.98 1560
5.04 1699
5.1 1933
5.16 2212
5.22 2608
5.28 3076
5.34 3722
5.4 5279
5.46 4865
5.52 4145
5.58 4670
5.64 5683
5.7 7678
5.76 10410
5.82 8851
5.88 3926
5.94 2141
6 1601
6.06 1486
6.12 1397
6.18 1306
6.24 1276
6.3 1283
6.36 1245
6.42 1254
6.48 1225
6.54 1342
6.6 1434
6.66 1552
6.72 1775
6.78 1746
6.84 1391
6.9 1203
6.96 1164
7.02 1013
7.08 1022
7.14 1028
7.2 999
7.26 1030
7.32 1029
7.38 1018
7.44 991
7.5 986
7.56 954
7.62 1003
7.68 969
7.74 984
7.8 999
7.86 1047
7.92 1065
7.98 1072
8.04 1090
8.1 1093
8.16 1167
8.22 1091
8.28 1052
8.34 966
8.4 1031
8.46 978
8.52 961
8.58 1002
8.64 1004
8.7 1020
8.76 1071
8.82 1116
8.88 1092
8.94 1176
9 1191
9.06 1353
9.12 1548
9.18 1755
9.24 2216
9.3 3294
9.36 3380
9.42 1594
9.48 1156
9.54 1114
9.6 1122
9.66 1157
9.72 1137
9.78 1208
9.84 1229
9.9 1196
9.96 1288
10.02 1349
10.08 1509
10.14 1709
10.2 1738
10.26 1434
10.32 1218
10.38 1179
10.44 1123
10.5 1151
10.56 1192
10.62 1239
10.68 1464
10.74 1688
10.8 1828
10.86 1893
10.92 2346
10.98 2485
11.04 1572
11.1 1221
11.16 1232
11.22 1228
11.28 1258
11.34 1321
11.4 1445
11.46 1630
11.52 1608
11.58 1377
11.64 1298
11.7 1158
11.76 1127
11.82 1136
11.88 1098
11.94 1149
12 1136
12.06 1236
12.12 1244
12.18 1365
12.24 1308
12.3 1202
12.36 1185
12.42 1101
12.48 1101
12.54 1087
12.6 1030
12.66 1005
12.72 1001
12.78 1074
12.84 1075
12.9 1090
12.96 1107
13.02 1062
13.08 1127
13.14 1161
13.2 1134
13.26 1209
13.32 1228
13.38 1173
13.44 1204
13.5 1161
13.56 1177
13.62 1096
13.68 1143
13.74 1092
13.8 1159
13.86 1081
13.92 1116
13.98 1146
14.04 1136
14.1 1181
14.16 1178
14.22 1260
14.28 1224
14.34 1316
14.4 1382
14.46 1171
14.52 1213
14.58 1227
14.64 1260
14.7 1222
14.76 1295
14.82 1306
14.88 1343
14.94 1269
15 1210
15.06 1267
15.12 1239
15.18 1328
15.24 1289
15.3 1277
15.36 1242
15.42 1275
15.48 1267
15.54 1232
15.6 1254
15.66 1381
15.72 1289
15.78 1298
15.84 1348
15.9 1324
15.96 1353
16.02 1407
16.08 1368
16.14 1499
16.2 1497
16.26 1470
16.32 1480
16.38 1378
16.44 1477
16.5 1431
16.56 1482
16.62 1468
16.68 1496
16.74 1427
16.8 1547
16.86 1747
16.92 2078
16.98 2917
17.04 2675
17.1 1725
17.16 1633
17.22 1596
17.28 1752
17.34 1652
17.4 1629
17.46 1610
17.52 1697
17.58 1646
17.64 1666
17.7 1670
17.76 1713
17.82 1700
17.88 1796
17.94 1749
18 1676
18.06 1754
18.12 1695
18.18 1750
18.24 1726
18.3 1719
18.36 1828
18.42 1817
18.48 1760
18.54 1759
18.6 1868
18.66 1902
18.72 1877
18.78 1989
18.84 1895
18.9 2049
18.96 2057
19.02 2130
19.08 2241
19.14 2098
19.2 2079
19.26 2028
19.32 2068
19.38 2115
19.44 2165
19.5 2247
19.56 2354
19.62 2140
19.68 2049
19.74 2171
19.8 2138
19.86 2153
19.92 2161
19.98 2152
20 2099

File: 6-17.ASC
3 2170
3.06 1766
3.12 1602
3.18 1447
3.24 1467
3.3 1430
3.36 1429
3.42 1427
3.48 1361
3.54 1365
3.6 1261
3.66 1315
3.72 1197
3.78 1205
3.84 1154
3.9 1165
3.96 1183
4.02 1146
4.08 1112
4.14 1133
4.2 1056
4.26 1036
4.32 1084
4.38 1036
4.44 1089
4.5 1017
4.56 1052
4.62 992
4.68 1014
4.74 999
4.8 951
4.86 965
4.92 1013
4.98 956
5.04 965
5.1 957
5.16 956
5.22 945
5.28 991
5.34 997
5.4 988
5.46 960
5.52 949
5.58 960
5.64 966
5.7 1015
5.76 898
5.82 1005
5.88 983
5.94 995
6 984
6.06 965
6.12 1013
6.18 965
6.24 972
6.3 982
6.36 998
6.42 984
6.48 963
6.54 992
6.6 976
6.66 1014
6.72 1001
6.78 1029
6.84 986
6.9 1078
6.96 1044
7.02 985
7.08 1029
7.14 1031
7.2 1021
7.26 1072
7.32 1016
7.38 1068
7.44 1025
7.5 1080
7.56 1008
7.62 1013
7.68 1051
7.74 1110
7.8 1061
7.86 1058
7.92 998
7.98 1032
8.04 979
8.1 1069
8.16 1051
8.22 1065
8.28 1038
8.34 1054
8.4 1025
8.46 1031
8.52 1084
8.58 1027
8.64 1096
8.7 1056
8.76 1057
8.82 1053
8.88 1109
8.94 1096
9 1018
9.06 1096
9.12 1100
9.18 1058
9.24 1103
9.3 1107
9.36 1110
9.42 1080
9.48 1068
9.54 1077
9.6 1145
9.66 1140
9.72 1069
9.78 1100
9.84 1044
9.9 1137
9.96 1122
10.02 1115
10.08 1115
10.14 1138
10.2 1121
10.26 1078
10.32 1107
10.38 1111
10.44 1119
10.5 1145
10.56 1136
10.62 1136
10.68 1107
10.74 1126
10.8 1117
10.86 1111
10.92 1142
10.98 1102
11.04 1106
11.1 1157
11.16 1130
11.22 1051
11.28 1093
11.34 1101
11.4 1102
11.46 1114
11.52 1160
11.58 1157
11.64 1099
11.7 1151
11.76 1137
11.82 1155
11.88 1176
11.94 1153
12 1174
12.06 1109
12.12 1136
12.18 1161
12.24 1182
12.3 1192
12.36 1163
12.42 1196
12.48 1137
12.54 1113
12.6 1173
12.66 1204
12.72 1165
12.78 1207
12.84 1207
12.9 1231
12.96 1197
13.02 1208
13.08 1160
13.14 1180
13.2 1221
13.26 1252
13.32 1271
13.38 1256
13.44 1202
13.5 1222
13.56 1247
13.62 1168
13.68 1248
13.74 1219
13.8 1230
13.86 1216
13.92 1256
13.98 1282
14.04 1285
14.1 1294
14.16 1301
14.22 1293
14.28 1295
14.34 1256
14.4 1284
14.46 1331
14.52 1314
14.58 1358
14.64 1353
14.7 1361
14.76 1375
14.82 1329
14.88 1337
14.94 1325
15 1288
15.06 1355
15.12 1399
15.18 1373
15.24 1396
15.3 1380
15.36 1448
15.42 1377
15.48 1461
15.54 1404
15.6 1472
15.66 1477
15.72 1463
15.78 1464
15.84 1545
15.9 1487
15.96 1503
16.02 1509
16.08 1545
16.14 1468
16.2 1533
16.26 1635
16.32 1760
16.38 1663
16.44 1607
16.5 1618
16.56 1696
16.62 1768
16.68 1740
16.74 1922
16.8 2071
16.86 2442
16.92 3279
16.98 3799
17.04 3885
17.1 2533
17.16 1874
17.22 1843
17.28 1831
17.34 1861
17.4 1852
17.46 1893
17.52 1924
17.58 1919
17.64 1893
17.7 1912
17.76 2006
17.82 1953
17.88 1909
17.94 1987
18 2059
18.06 2019
18.12 2050
18.18 2001
18.24 2134
18.3 2160
18.36 2068
18.42 2093
18.48 2160
18.54 2166
18.6 2151
18.66 2208
18.72 2180
18.78 2288
18.84 2154
18.9 2298
18.96 2354
19.02 2233
19.08 2371
19.14 2272
19.2 2263
19.26 2386
19.32 2463
19.38 2320
19.44 2386
19.5 2365
19.56 2397
19.62 2451
19.68 2440
19.74 2429
19.8 2469
19.86 2487
19.92 2488
19.98 2495
20 2446

File: 6-20.ASC
3 2007
3.06 1618
3.12 1444
3.18 1389
3.24 1352
3.3 1319
3.36 1261
3.42 1249
3.48 1229
3.54 1164
3.6 1140
3.66 1080
3.72 1098
3.78 1068
3.84 1047
3.9 1029
3.96 982
4.02 945
4.08 985
4.14 956
4.2 890
4.26 923
4.32 891
4.38 846
4.44 846
4.5 852
4.56 823
4.62 861
4.68 848
4.74 809
4.8 798
4.86 809
4.92 791
4.98 776
5.04 809
5.1 831
5.16 800
5.22 775
5.28 761
5.34 768
5.4 782
5.46 798
5.52 803
5.58 779
5.64 739
5.7 805
5.76 712
5.82 733
5.88 813
5.94 786
6 748
6.06 820
6.12 774
6.18 815
6.24 751
6.3 809
6.36 760
6.42 840
6.48 824
6.54 802
6.6 811
6.66 853
6.72 758
6.78 764
6.84 813
6.9 849
6.96 808
7.02 839
7.08 772
7.14 794
7.2 789
7.26 802
7.32 837
7.38 838
7.44 860
7.5 831
7.56 814
7.62 793
7.68 803
7.74 814
7.8 827
7.86 812
7.92 810
7.98 807
8.04 876
8.1 873
8.16 865
8.22 839
8.28 819
8.34 875
8.4 906
8.46 823
8.52 837
8.58 808
8.64 833
8.7 813
8.76 826
8.82 851
8.88 863
8.94 885
9 889
9.06 886
9.12 852
9.18 845
9.24 825
9.3 842
9.36 822
9.42 874
9.48 824
9.54 801
9.6 838
9.66 820
9.72 791
9.78 835
9.84 867
9.9 871
9.96 853
10.02 879
10.08 878
10.14 913
10.2 854
10.26 807
10.32 858
10.38 826
10.44 863
10.5 903
10.56 892
10.62 881
10.68 867
10.74 852
10.8 891
10.86 858
10.92 839
10.98 824
11.04 927
11.1 879
11.16 880
11.22 861
11.28 888
11.34 867
11.4 871
11.46 827
11.52 847
11.58 886
11.64 950
11.7 893
11.76 914
11.82 845
11.88 910
11.94 879
12 893
12.06 929
12.12 890
12.18 921
12.24 914
12.3 953
12.36 894
12.42 942
12.48 916
12.54 959
12.6 902
12.66 936
12.72 876
12.78 957
12.84 953
12.9 970
12.96 914
13.02 884
13.08 922
13.14 1006
13.2 973
13.26 950
13.32 1071
13.38 970
13.44 998
13.5 986
13.56 958
13.62 1021
13.68 949
13.74 935
13.8 1033
13.86 1052
13.92 1049
13.98 1028
14.04 1007
14.1 998
14.16 1017
14.22 1026
14.28 1032
14.34 1098
14.4 1035
14.46 1086
14.52 1055
14.58 1077
14.64 1070
14.7 1044
14.76 1180
14.82 1074
14.88 1066
14.94 1165
15 1081
15.06 1176
15.12 1134
15.18 1139
15.24 1162
15.3 1207
15.36 1221
15.42 1224
15.48 1216
15.54 1213
15.6 1187
15.66 1217
15.72 1237
15.78 1221
15.84 1210
15.9 1198
15.96 1251
16.02 1274
16.08 1257
16.14 1214
16.2 1299
16.26 1299
16.32 1304
16.38 1410
16.44 1398
16.5 1363
16.56 1393
16.62 1432
16.68 1455
16.74 1507
16.8 1583
16.86 1703
16.92 1945
16.98 2495
17.04 3514
17.1 3930
17.16 2464
17.22 1687
17.28 1633
17.34 1623
17.4 1712
17.46 1683
17.52 1648
17.58 1651
17.64 1649
17.7 1635
17.76 1653
17.82 1686
17.88 1684
17.94 1770
18 1708
18.06 1771
18.12 1793
18.18 1775
18.24 1894
18.3 1812
18.36 1853
18.42 1929
18.48 1906
18.54 1946
18.6 2038
18.66 2114
18.72 2062
18.78 2018
18.84 2041
18.9 2022
18.96 2103
19.02 2120
19.08 2167
19.14 2174
19.2 2168
19.26 2155
19.32 2258
19.38 2224
19.44 2245
19.5 2276
19.56 2353
19.62 2390
19.68 2378
19.74 2396
19.8 2447
19.86 2366
19.92 2402
19.98 2474
20 2445

File: 7-1.ASC
3 1954
3.06 1486
3.12 1286
3.18 1254
3.24 1153
3.3 1171
3.36 1141
3.42 1132
3.48 1118
3.54 1037
3.6 1037
3.66 1032
3.72 1055
3.78 1013
3.84 969
3.9 1051
3.96 1034
4.02 999
4.08 999
4.14 967
4.2 947
4.26 981
4.32 959
4.38 957
4.44 923
4.5 972
4.56 946
4.62 912
4.68 996
4.74 945
4.8 964
4.86 942
4.92 1019
4.98 973
5.04 986
5.1 1040
5.16 1022
5.22 1035
5.28 1096
5.34 1086
5.4 1078
5.46 1114
5.52 1123
5.58 1167
5.64 1195
5.7 1230
5.76 1179
5.82 1130
5.88 1182
5.94 1155
6 1056
6.06 1090
6.12 1012
6.18 986
6.24 993
6.3 938
6.36 955
6.42 893
6.48 904
6.54 861
6.6 853
6.66 824
6.72 916
6.78 799
6.84 779
6.9 800
6.96 790
7.02 775
7.08 800
7.14 750
7.2 759
7.26 751
7.32 776
7.38 701
7.44 706
7.5 821
7.56 712
7.62 723
7.68 773
7.74 741
7.8 713
7.86 726
7.92 715
7.98 721
8.04 786
8.1 740
8.16 745
8.22 761
8.28 703
8.34 732
8.4 733
8.46 746
8.52 744
8.58 776
8.64 716
8.7 707
8.76 724
8.82 752
8.88 737
8.94 745
9 777
9.06 764
9.12 761
9.18 745
9.24 736
9.3 726
9.36 801
9.42 851
9.48 826
9.54 798
9.6 828
9.66 783
9.72 812
9.78 805
9.84 756
9.9 739
9.96 770
10.02 772
10.08 751
10.14 798
10.2 786
10.26 763
10.32 726
10.38 735
10.44 794
10.5 814
10.56 772
10.62 799
10.68 851
10.74 797
10.8 775
10.86 779
10.92 859
10.98 823
11.04 826
11.1 839
11.16 834
11.22 835
11.28 839
11.34 793
11.4 799
11.46 837
11.52 794
11.58 789
11.64 736
11.7 762
11.76 788
11.82 745
11.88 788
11.94 808
12 744
12.06 768
12.12 794
12.18 773
12.24 751
12.3 769
12.36 792
12.42 768
12.48 838
12.54 794
12.6 784
12.66 813
12.72 798
12.78 755
12.84 814
12.9 829
12.96 825
13.02 795
13.08 800
13.14 842
13.2 803
13.26 827
13.32 828
13.38 798
13.44 838
13.5 802
13.56 883
13.62 883
13.68 871
13.74 921
13.8 835
13.86 845
13.92 888
13.98 868
14.04 864
14.1 860
14.16 942
14.22 933
14.28 877
14.34 979
14.4 901
14.46 974
14.52 977
14.58 961
14.64 950
14.7 927
14.76 930
14.82 1055
14.88 976
14.94 1021
15 1002
15.06 1002
15.12 1047
15.18 1084
15.24 1052
15.3 1061
15.36 1093
15.42 1127
15.48 1052
15.54 1071
15.6 1097
15.66 1053
15.72 1119
15.78 1099
15.84 1166
15.9 1133
15.96 1096
16.02 1164
16.08 1178
16.14 1198
16.2 1232
16.26 1222
16.32 1240
16.38 1217
16.44 1252
16.5 1235
16.56 1239
16.62 1242
16.68 1258
16.74 1304
16.8 1349
16.86 1437
16.92 1382
16.98 1559
17.04 1549
17.1 1607
17.16 1562
17.22 1581
17.28 1447
17.34 1509
17.4 1466
17.46 1457
17.52 1425
17.58 1438
17.64 1556
17.7 1541
17.76 1551
17.82 1559
17.88 1562
17.94 1590
18 1609
18.06 1599
18.12 1689
18.18 1686
18.24 1677
18.3 1687
18.36 1696
18.42 1749
18.48 1720
18.54 1675
18.6 1761
18.66 1755
18.72 1771
18.78 1781
18.84 1815
18.9 1839
18.96 1877
19.02 1856
19.08 1854
19.14 1810
19.2 1878
19.26 1893
19.32 1908
19.38 1959
19.44 1925
19.5 1988
19.56 1976
19.62 2012
19.68 1969
19.74 2076
19.8 2086
19.86 2002
19.92 2019
19.98 1973
20 2033

File: 7-2.ASC
3 2033
3.06 1594
3.12 1387
3.18 1383
3.24 1283
3.3 1279
3.36 1260
3.42 1267
3.48 1176
3.54 1121
3.6 1127
3.66 1138
3.72 1092
3.78 1075
3.84 997
3.9 1014
3.96 947
4.02 956
4.08 968
4.14 916
4.2 891
4.26 896
4.32 874
4.38 901
4.44 886
4.5 868
4.56 795
4.62 819
4.68 825
4.74 776
4.8 788
4.86 785
4.92 800
4.98 772
5.04 775
5.1 717
5.16 775
5.22 772
5.28 768
5.34 771
5.4 711
5.46 739
5.52 752
5.58 731
5.64 748
5.7 712
5.76 744
5.82 729
5.88 759
5.94 662
6 719
6.06 740
6.12 707
6.18 698
6.24 675
6.3 675
6.36 733
6.42 716
6.48 723
6.54 776
6.6 721
6.66 732
6.72 728
6.78 656
6.84 673
6.9 707
6.96 725
7.02 666
7.08 737
7.14 685
7.2 685
7.26 659
7.32 700
7.38 724
7.44 670
7.5 653
7.56 684
7.62 659
7.68 643
7.74 660
7.8 662
7.86 668
7.92 637
7.98 673
8.04 655
8.1 659
8.16 677
8.22 667
8.28 663
8.34 681
8.4 655
8.46 652
8.52 621
8.58 676
8.64 656
8.7 614
8.76 659
8.82 646
8.88 617
8.94 621
9 648
9.06 646
9.12 611
9.18 623
9.24 591
9.3 669
9.36 615
9.42 637
9.48 626
9.54 622
9.6 625
9.66 631
9.72 602
9.78 608
9.84 562
9.9 636
9.96 615
10.02 633
10.08 659
10.14 600
10.2 586
10.26 606
10.32 602
10.38 611
10.44 620
10.5 604
10.56 579
10.62 588
10.68 599
10.74 604
10.8 642
10.86 611
10.92 597
10.98 639
11.04 662
11.1 584
11.16 643
11.22 609
11.28 560
11.34 611
11.4 603
11.46 606
11.52 573
11.58 578
11.64 577
11.7 584
11.76 600
11.82 602
11.88 608
11.94 616
12 607
12.06 579
12.12 623
12.18 605
12.24 607
12.3 629
12.36 628
12.42 610
12.48 620
12.54 614
12.6 630
12.66 619
12.72 639
12.78 604
12.84 596
12.9 599
12.96 622
13.02 647
13.08 643
13.14 579
13.2 653
13.26 648
13.32 609
13.38 609
13.44 618
13.5 668
13.56 636
13.62 660
13.68 673
13.74 644
13.8 610
13.86 632
13.92 612
13.98 575
14.04 641
14.1 646
14.16 626
14.22 656
14.28 629
14.34 674
14.4 666
14.46 696
14.52 638
14.58 668
14.64 706
14.7 660
14.76 699
14.82 717
14.88 664
14.94 710
15 723
15.06 667
15.12 727
15.18 727
15.24 679
15.3 714
15.36 738
15.42 742
15.48 690
15.54 760
15.6 743
15.66 786
15.72 801
15.78 744
15.84 755
15.9 763
15.96 782
16.02 815
16.08 734
16.14 795
16.2 775
16.26 828
16.32 815
16.38 840
16.44 806
16.5 808
16.56 876
16.62 860
16.68 842
16.74 828
16.8 842
16.86 885
16.92 912
16.98 962
17.04 1100
17.1 1091
17.16 1069
17.22 1073
17.28 1019
17.34 948
17.4 945
17.46 941
17.52 987
17.58 1006
17.64 979
17.7 946
17.76 1026
17.82 1035
17.88 1028
17.94 1014
18 1068
18.06 1096
18.12 1019
18.18 1079
18.24 1082
18.3 1059
18.36 1106
18.42 1089
18.48 1129
18.54 1182
18.6 1187
18.66 1226
18.72 1200
18.78 1156
18.84 1190
18.9 1209
18.96 1243
19.02 1218
19.08 1256
19.14 1166
19.2 1255
19.26 1215
19.32 1250
19.38 1287
19.44 1274
19.5 1307
19.56 1272
19.62 1333
19.68 1307
19.74 1336
19.8 1371
19.86 1315
19.92 1349
19.98 1411
20 1416

File: 7-3.ASC
3 2283
3.06 1911
3.12 1810
3.18 1973
3.24 1926
3.3 1802
3.36 1740
3.42 1622
3.48 1594
3.54 1526
3.6 1457
3.66 1465
3.72 1294
3.78 1353
3.84 1298
3.9 1266
3.96 1202
4.02 1187
4.08 1208
4.14 1128
4.2 1107
4.26 1167
4.32 1026
4.38 1086
4.44 1023
4.5 1027
4.56 1061
4.62 981
4.68 966
4.74 986
4.8 943
4.86 953
4.92 922
4.98 958
5.04 932
5.1 854
5.16 902
5.22 890
5.28 867
5.34 884
5.4 888
5.46 889
5.52 840
5.58 865
5.64 844
5.7 843
5.76 906
5.82 875
5.88 862
5.94 793
6 848
6.06 864
6.12 822
6.18 815
6.24 860
6.3 801
6.36 819
6.42 831
6.48 866
6.54 798
6.6 851
6.66 812
6.72 787
6.78 835
6.84 849
6.9 817
6.96 811
7.02 801
7.08 852
7.14 794
7.2 799
7.26 805
7.32 801
7.38 793
7.44 844
7.5 862
7.56 836
7.62 793
7.68 826
7.74 814
7.8 845
7.86 833
7.92 827
7.98 837
8.04 845
8.1 781
8.16 810
8.22 827
8.28 858
8.34 772
8.4 793
8.46 809
8.52 771
8.58 749
8.64 775
8.7 811
8.76 796
8.82 824
8.88 781
8.94 797
9 766
9.06 805
9.12 783
9.18 756
9.24 798
9.3 790
9.36 801
9.42 804
9.48 763
9.54 753
9.6 777
9.66 830
9.72 729
9.78 786
9.84 798
9.9 738
9.96 754
10.02 755
10.08 763
10.14 781
10.2 827
10.26 756
10.32 779
10.38 773
10.44 793
10.5 780
10.56 804
10.62 802
10.68 782
10.74 787
10.8 723
10.86 790
10.92 733
10.98 754
11.04 778
11.1 762
11.16 773
11.22 810
11.28 801
11.34 716
11.4 793
11.46 758
11.52 795
11.58 809
11.64 821
11.7 783
11.76 741
11.82 778
11.88 776
11.94 762
12 820
12.06 803
12.12 779
12.18 797
12.24 820
12.3 805
12.36 776
12.42 762
12.48 801
12.54 736
12.6 734
12.66 798
12.72 799
12.78 811
12.84 776
12.9 792
12.96 817
13.02 801
13.08 799
13.14 810
13.2 814
13.26 855
13.32 854
13.38 842
13.44 783
13.5 804
13.56 786
13.62 765
13.68 781
13.74 810
13.8 865
13.86 836
13.92 835
13.98 825
14.04 802
14.1 823
14.16 816
14.22 827
14.28 799
14.34 862
14.4 907
14.46 818
14.52 916
14.58 852
14.64 855
14.7 896
14.76 826
14.82 826
14.88 886
14.94 910
15 875
15.06 904
15.12 896
15.18 922
15.24 911
15.3 913
15.36 890
15.42 899
15.48 942
15.54 959
15.6 937
15.66 919
15.72 980
15.78 909
15.84 993
15.9 948
15.96 957
16.02 983
16.08 991
16.14 946
16.2 1026
16.26 1045
16.32 1000
16.38 1007
16.44 1081
16.5 1010
16.56 1069
16.62 1061
16.68 1104
16.74 1157
16.8 1262
16.86 1376
16.92 1625
16.98 2144
17.04 2426
17.1 1896
17.16 1419
17.22 1256
17.28 1201
17.34 1202
17.4 1190
17.46 1163
17.52 1152
17.58 1200
17.64 1185
17.7 1166
17.76 1257
17.82 1221
17.88 1246
17.94 1246
18 1211
18.06 1204
18.12 1304
18.18 1262
18.24 1323
18.3 1255
18.36 1308
18.42 1339
18.48 1313
18.54 1304
18.6 1329
18.66 1303
18.72 1359
18.78 1379
18.84 1345
18.9 1342
18.96 1335
19.02 1348
19.08 1468
19.14 1381
19.2 1471
19.26 1396
19.32 1484
19.38 1457
19.44 1474
19.5 1507
19.56 1432
19.62 1569
19.68 1410
19.74 1517
19.8 1507
19.86 1550
19.92 1557
19.98 1514
20 1578

File: 7-4.ASC
3 1703
3.06 1338
3.12 1165
3.18 1093
3.24 1112
3.3 1021
3.36 1036
3.42 1039
3.48 984
3.54 1076
3.6 1008
3.66 902
3.72 944
3.78 903
3.84 882
3.9 902
3.96 926
4.02 914
4.08 869
4.14 902
4.2 870
4.26 823
4.32 901
4.38 883
4.44 881
4.5 878
4.56 853
4.62 803
4.68 848
4.74 861
4.8 869
4.86 859
4.92 874
4.98 858
5.04 986
5.1 897
5.16 938
5.22 930
5.28 987
5.34 1004
5.4 1068
5.46 1058
5.52 1067
5.58 1127
5.64 1144
5.7 1147
5.76 1228
5.82 1260
5.88 1292
5.94 1256
6 1227
6.06 1139
6.12 1049
6.18 979
6.24 935
6.3 889
6.36 847
6.42 773
6.48 776
6.54 767
6.6 781
6.66 738
6.72 794
6.78 721
6.84 765
6.9 715
6.96 683
7.02 669
7.08 680
7.14 727
7.2 673
7.26 681
7.32 577
7.38 645
7.44 621
7.5 643
7.56 603
7.62 607
7.68 649
7.74 636
7.8 591
7.86 583
7.92 567
7.98 579
8.04 600
8.1 622
8.16 596
8.22 573
8.28 601
8.34 575
8.4 616
8.46 573
8.52 592
8.58 597
8.64 631
8.7 574
8.76 607
8.82 622
8.88 601
8.94 582
9 607
9.06 582
9.12 607
9.18 574
9.24 611
9.3 639
9.36 572
9.42 628
9.48 637
9.54 708
9.6 643
9.66 684
9.72 691
9.78 658
9.84 622
9.9 608
9.96 560
10.02 620
10.08 606
10.14 586
10.2 594
10.26 601
10.32 603
10.38 598
10.44 609
10.5 608
10.56 626
10.62 585
10.68 548
10.74 622
10.8 609
10.86 633
10.92 568
10.98 613
11.04 618
11.1 658
11.16 598
11.22 628
11.28 635
11.34 578
11.4 589
11.46 566
11.52 602
11.58 582
11.64 604
11.7 587
11.76 571
11.82 545
11.88 565
11.94 561
12 592
12.06 569
12.12 545
12.18 597
12.24 553
12.3 569
12.36 578
12.42 550
12.48 574
12.54 551
12.6 569
12.66 550
12.72 537
12.78 549
12.84 545
12.9 561
12.96 551
13.02 596
13.08 576
13.14 513
13.2 525
13.26 517
13.32 630
13.38 587
13.44 578
13.5 616
13.56 573
13.62 548
13.68 571
13.74 564
13.8 542
13.86 617
13.92 581
13.98 587
14.04 645
14.1 587
14.16 556
14.22 583
14.28 581
14.34 605
14.4 618
14.46 641
14.52 601
14.58 641
14.64 664
14.7 612
14.76 661
14.82 624
14.88 658
14.94 623
15 656
15.06 643
15.12 621
15.18 643
15.24 702
15.3 641
15.36 655
15.42 708
15.48 678
15.54 643
15.6 675
15.66 698
15.72 702
15.78 709
15.84 722
15.9 678
15.96 697
16.02 698
16.08 740
16.14 723
16.2 748
16.26 748
16.32 783
16.38 736
16.44 769
16.5 772
16.56 744
16.62 759
16.68 803
16.74 784
16.8 781
16.86 831
16.92 774
16.98 838
17.04 855
17.1 840
17.16 847
17.22 1003
17.28 1051
17.34 969
17.4 868
17.46 869
17.52 942
17.58 911
17.64 902
17.7 930
17.76 866
17.82 957
17.88 966
17.94 883
18 980
18.06 904
18.12 918
18.18 971
18.24 985
18.3 996
18.36 1005
18.42 1003
18.48 985
18.54 1034
18.6 991
18.66 1040
18.72 1007
18.78 1047
18.84 1088
18.9 1070
18.96 1061
19.02 1086
19.08 1096
19.14 1118
19.2 1146
19.26 1089
19.32 1106
19.38 1207
19.44 1198
19.5 1219
19.56 1168
19.62 1189
19.68 1248
19.74 1286
19.8 1269
19.86 1274
19.92 1215
19.98 1272
20 1251