Folder: CPC-code/xrd-UiO-67/pxrddata (part 15)

File: 37-13-1.ASC
3 2492
3.06 2009
3.12 1802
3.18 1704
3.24 1707
3.3 1604
3.36 1575
3.42 1569
3.48 1475
3.54 1475
3.6 1443
3.66 1409
3.72 1310
3.78 1342
3.84 1287
3.9 1267
3.96 1298
4.02 1277
4.08 1191
4.14 1177
4.2 1168
4.26 1241
4.32 1173
4.38 1128
4.44 1144
4.5 1166
4.56 1105
4.62 1062
4.68 1151
4.74 1026
4.8 1074
4.86 1096
4.92 1004
4.98 1051
5.04 1117
5.1 1077
5.16 1055
5.22 1156
5.28 1118
5.34 1190
5.4 1202
5.46 1172
5.52 1052
5.58 1027
5.64 991
5.7 942
5.76 982
5.82 873
5.88 887
5.94 894
6 822
6.06 854
6.12 877
6.18 836
6.24 826
6.3 774
6.36 778
6.42 769
6.48 764
6.54 738
6.6 723
6.66 679
6.72 718
6.78 759
6.84 712
6.9 725
6.96 724
7.02 673
7.08 696
7.14 695
7.2 688
7.26 683
7.32 701
7.38 688
7.44 654
7.5 690
7.56 737
7.62 652
7.68 677
7.74 657
7.8 623
7.86 663
7.92 632
7.98 617
8.04 640
8.1 654
8.16 622
8.22 639
8.28 642
8.34 583
8.4 610
8.46 612
8.52 599
8.58 637
8.64 628
8.7 610
8.76 607
8.82 638
8.88 659
8.94 626
9 615
9.06 639
9.12 641
9.18 646
9.24 675
9.3 727
9.36 738
9.42 696
9.48 711
9.54 653
9.6 660
9.66 621
9.72 668
9.78 610
9.84 629
9.9 607
9.96 615
10.02 602
10.08 623
10.14 604
10.2 578
10.26 590
10.32 575
10.38 574
10.44 600
10.5 584
10.56 573
10.62 596
10.68 589
10.74 547
10.8 610
10.86 629
10.92 546
10.98 568
11.04 572
11.1 621
11.16 595
11.22 582
11.28 596
11.34 552
11.4 567
11.46 574
11.52 570
11.58 599
11.64 587
11.7 587
11.76 612
11.82 634
11.88 612
11.94 538
12 580
12.06 582
12.12 578
12.18 534
12.24 574
12.3 662
12.36 574
12.42 601
12.48 589
12.54 631
12.6 589
12.66 612
12.72 585
12.78 586
12.84 554
12.9 620
12.96 602
13.02 594
13.08 627
13.14 600
13.2 592
13.26 612
13.32 595
13.38 613
13.44 644
13.5 662
13.56 646
13.62 589
13.68 636
13.74 642
13.8 630
13.86 618
13.92 635
13.98 688
14.04 639
14.1 678
14.16 621
14.22 674
14.28 637
14.34 700
14.4 688
14.46 654
14.52 675
14.58 678
14.64 656
14.7 646
14.76 727
14.82 688
14.88 698
14.94 728
15 663
15.06 697
15.12 725
15.18 739
15.24 684
15.3 689
15.36 717
15.42 693
15.48 688
15.54 786
15.6 735
15.66 706
15.72 719
15.78 769
15.84 712
15.9 718
15.96 749
16.02 722
16.08 744
16.14 714
16.2 780
16.26 771
16.32 761
16.38 767
16.44 747
16.5 779
16.56 807
16.62 838
16.68 814
16.74 875
16.8 908
16.86 975
16.92 1145
16.98 1405
17.04 1032
17.1 891
17.16 871
17.22 939
17.28 884
17.34 911
17.4 922
17.46 916
17.52 872
17.58 874
17.64 927
17.7 922
17.76 924
17.82 912
17.88 998
17.94 946
18 924
18.06 953
18.12 969
18.18 984
18.24 986
18.3 1031
18.36 935
18.42 1050
18.48 1004
18.54 950
18.6 1002
18.66 1013
18.72 1066
18.78 1088
18.84 1086
18.9 1054
18.96 1082
19.02 1105
19.08 1084
19.14 1036
19.2 1115
19.26 1075
19.32 1119
19.38 1134
19.44 1141
19.5 1138
19.56 1141
19.62 1251
19.68 1173
19.74 1183
19.8 1209
19.86 1128
19.92 1205
19.98 1155
20 1190

File: 37-14.ASC
3 2266
3.06 1865
3.12 1624
3.18 1544
3.24 1601
3.3 1446
3.36 1387
3.42 1415
3.48 1336
3.54 1281
3.6 1316
3.66 1254
3.72 1231
3.78 1153
3.84 1182
3.9 1116
3.96 1042
4.02 1085
4.08 1049
4.14 1024
4.2 1042
4.26 989
4.32 1047
4.38 990
4.44 1007
4.5 992
4.56 962
4.62 925
4.68 953
4.74 948
4.8 902
4.86 938
4.92 905
4.98 919
5.04 912
5.1 909
5.16 897
5.22 887
5.28 932
5.34 922
5.4 888
5.46 991
5.52 961
5.58 872
5.64 874
5.7 803
5.76 775
5.82 766
5.88 789
5.94 722
6 750
6.06 737
6.12 707
6.18 690
6.24 713
6.3 650
6.36 664
6.42 671
6.48 637
6.54 632
6.6 620
6.66 629
6.72 639
6.78 674
6.84 615
6.9 605
6.96 630
7.02 646
7.08 637
7.14 609
7.2 605
7.26 636
7.32 651
7.38 596
7.44 582
7.5 615
7.56 601
7.62 593
7.68 590
7.74 593
7.8 570
7.86 582
7.92 599
7.98 559
8.04 599
8.1 559
8.16 547
8.22 623
8.28 572
8.34 581
8.4 612
8.46 568
8.52 564
8.58 577
8.64 579
8.7 594
8.76 558
8.82 628
8.88 578
8.94 551
9 580
9.06 596
9.12 573
9.18 560
9.24 582
9.3 593
9.36 605
9.42 675
9.48 587
9.54 581
9.6 567
9.66 568
9.72 573
9.78 574
9.84 564
9.9 575
9.96 496
10.02 548
10.08 543
10.14 573
10.2 523
10.26 553
10.32 525
10.38 551
10.44 538
10.5 523
10.56 542
10.62 519
10.68 537
10.74 550
10.8 623
10.86 559
10.92 539
10.98 545
11.04 572
11.1 531
11.16 514
11.22 550
11.28 528
11.34 550
11.4 527
11.46 529
11.52 514
11.58 527
11.64 560
11.7 561
11.76 524
11.82 564
11.88 565
11.94 557
12 559
12.06 536
12.12 572
12.18 528
12.24 542
12.3 590
12.36 559
12.42 580
12.48 572
12.54 580
12.6 598
12.66 573
12.72 582
12.78 525
12.84 586
12.9 561
12.96 572
13.02 576
13.08 589
13.14 577
13.2 608
13.26 590
13.32 606
13.38 610
13.44 563
13.5 575
13.56 603
13.62 633
13.68 657
13.74 592
13.8 593
13.86 612
13.92 622
13.98 607
14.04 620
14.1 634
14.16 624
14.22 666
14.28 671
14.34 641
14.4 671
14.46 647
14.52 629
14.58 650
14.64 677
14.7 651
14.76 673
14.82 685
14.88 669
14.94 639
15 708
15.06 675
15.12 716
15.18 705
15.24 736
15.3 719
15.36 732
15.42 704
15.48 743
15.54 705
15.6 733
15.66 726
15.72 687
15.78 713
15.84 736
15.9 803
15.96 726
16.02 770
16.08 794
16.14 754
16.2 812
16.26 833
16.32 782
16.38 837
16.44 826
16.5 798
16.56 784
16.62 836
16.68 864
16.74 873
16.8 888
16.86 961
16.92 890
16.98 1138
17.04 1308
17.1 1196
17.16 925
17.22 950
17.28 897
17.34 960
17.4 949
17.46 913
17.52 904
17.58 952
17.64 968
17.7 963
17.76 983
17.82 955
17.88 1000
17.94 988
18 1002
18.06 969
18.12 1036
18.18 1027
18.24 1027
18.3 1060
18.36 1056
18.42 1004
18.48 1068
18.54 1062
18.6 1116
18.66 1085
18.72 1104
18.78 1200
18.84 1119
18.9 1092
18.96 1128
19.02 1137
19.08 1158
19.14 1173
19.2 1145
19.26 1204
19.32 1222
19.38 1184
19.44 1225
19.5 1344
19.56 1231
19.62 1252
19.68 1247
19.74 1243
19.8 1263
19.86 1268
19.92 1314
19.98 1301
20 1242

File: 37-15.ASC
3 2549
3.06 2202
3.12 1908
3.18 1839
3.24 1817
3.3 1701
3.36 1612
3.42 1651
3.48 1545
3.54 1478
3.6 1463
3.66 1381
3.72 1391
3.78 1326
3.84 1371
3.9 1291
3.96 1241
4.02 1214
4.08 1170
4.14 1156
4.2 1157
4.26 1118
4.32 1127
4.38 1085
4.44 1042
4.5 1100
4.56 1101
4.62 1058
4.68 982
4.74 1002
4.8 1029
4.86 1061
4.92 995
4.98 992
5.04 1067
5.1 989
5.16 1013
5.22 1052
5.28 1097
5.34 1103
5.4 1231
5.46 1285
5.52 1265
5.58 1092
5.64 950
5.7 938
5.76 897
5.82 899
5.88 875
5.94 805
6 832
6.06 773
6.12 804
6.18 807
6.24 798
6.3 771
6.36 753
6.42 725
6.48 722
6.54 765
6.6 710
6.66 759
6.72 688
6.78 717
6.84 713
6.9 745
6.96 730
7.02 721
7.08 701
7.14 649
7.2 733
7.26 719
7.32 697
7.38 701
7.44 651
7.5 648
7.56 682
7.62 658
7.68 657
7.74 620
7.8 636
7.86 678
7.92 651
7.98 659
8.04 667
8.1 659
8.16 590
8.22 640
8.28 652
8.34 607
8.4 646
8.46 626
8.52 583
8.58 605
8.64 612
8.7 637
8.76 631
8.82 586
8.88 633
8.94 634
9 566
9.06 616
9.12 621
9.18 628
9.24 680
9.3 669
9.36 730
9.42 740
9.48 731
9.54 690
9.6 605
9.66 596
9.72 584
9.78 590
9.84 596
9.9 621
9.96 597
10.02 590
10.08 556
10.14 601
10.2 622
10.26 563
10.32 542
10.38 590
10.44 630
10.5 605
10.56 609
10.62 596
10.68 613
10.74 621
10.8 630
10.86 611
10.92 596
10.98 598
11.04 610
11.1 604
11.16 588
11.22 571
11.28 614
11.34 571
11.4 561
11.46 553
11.52 597
11.58 565
11.64 543
11.7 561
11.76 548
11.82 553
11.88 569
11.94 603
12 579
12.06 593
12.12 580
12.18 609
12.24 548
12.3 560
12.36 587
12.42 531
12.48 601
12.54 575
12.6 621
12.66 600
12.72 591
12.78 619
12.84 591
12.9 629
12.96 616
13.02 604
13.08 578
13.14 625
13.2 625
13.26 608
13.32 566
13.38 618
13.44 595
13.5 582
13.56 560
13.62 644
13.68 638
13.74 589
13.8 643
13.86 635
13.92 631
13.98 625
14.04 668
14.1 665
14.16 637
14.22 656
14.28 646
14.34 629
14.4 645
14.46 646
14.52 668
14.58 685
14.64 617
14.7 687
14.76 721
14.82 691
14.88 669
14.94 669
15 710
15.06 673
15.12 711
15.18 680
15.24 697
15.3 744
15.36 726
15.42 685
15.48 737
15.54 730
15.6 716
15.66 691
15.72 757
15.78 721
15.84 745
15.9 726
15.96 798
16.02 766
16.08 775
16.14 806
16.2 825
16.26 791
16.32 808
16.38 795
16.44 788
16.5 787
16.56 852
16.62 790
16.68 810
16.74 817
16.8 893
16.86 917
16.92 1111
16.98 1192
17.04 1430
17.1 1337
17.16 973
17.22 968
17.28 901
17.34 914
17.4 908
17.46 940
17.52 882
17.58 938
17.64 931
17.7 920
17.76 956
17.82 945
17.88 950
17.94 1041
18 970
18.06 958
18.12 995
18.18 969
18.24 1046
18.3 992
18.36 1050
18.42 1047
18.48 986
18.54 1033
18.6 980
18.66 1051
18.72 1080
18.78 1085
18.84 1126
18.9 1156
18.96 1090
19.02 1131
19.08 1140
19.14 1107
19.2 1152
19.26 1223
19.32 1174
19.38 1252
19.44 1181
19.5 1197
19.56 1267
19.62 1211
19.68 1208
19.74 1258
19.8 1225
19.86 1201
19.92 1264
19.98 1296
20 1287

File: 37-16.ASC
3 1961
3.06 1642
3.12 1509
3.18 1397
3.24 1290
3.3 1279
3.36 1247
3.42 1252
3.48 1175
3.54 1108
3.6 1065
3.66 983
3.72 1028
3.78 932
3.84 994
3.9 960
3.96 936
4.02 930
4.08 853
4.14 808
4.2 873
4.26 760
4.32 702
4.38 750
4.44 741
4.5 745
4.56 712
4.62 684
4.68 717
4.74 648
4.8 678
4.86 714
4.92 576
4.98 572
5.04 626
5.1 587
5.16 630
5.22 587
5.28 600
5.34 595
5.4 601
5.46 577
5.52 575
5.58 627
5.64 617
5.7 591
5.76 598
5.82 575
5.88 544
5.94 554
6 574
6.06 574
6.12 530
6.18 560
6.24 545
6.3 570
6.36 542
6.42 551
6.48 576
6.54 506
6.6 536
6.66 523
6.72 535
6.78 514
6.84 534
6.9 520
6.96 497
7.02 489
7.08 516
7.14 517
7.2 559
7.26 496
7.32 530
7.38 543
7.44 547
7.5 508
7.56 516
7.62 540
7.68 498
7.74 556
7.8 490
7.86 516
7.92 521
7.98 532
8.04 519
8.1 508
8.16 517
8.22 488
8.28 501
8.34 477
8.4 535
8.46 565
8.52 541
8.58 610
8.64 565
8.7 653
8.76 722
8.82 783
8.88 969
8.94 1284
9 1858
9.06 1887
9.12 1221
9.18 748
9.24 556
9.3 508
9.36 522
9.42 507
9.48 561
9.54 502
9.6 540
9.66 607
9.72 614
9.78 649
9.84 748
9.9 949
9.96 1250
10.02 1145
10.08 840
10.14 572
10.2 511
10.26 488
10.32 495
10.38 466
10.44 459
10.5 458
10.56 476
10.62 467
10.68 496
10.74 473
10.8 511
10.86 476
10.92 481
10.98 502
11.04 489
11.1 459
11.16 478
11.22 492
11.28 461
11.34 470
11.4 459
11.46 458
11.52 470
11.58 433
11.64 479
11.7 440
11.76 468
11.82 461
11.88 451
11.94 454
12 486
12.06 447
12.12 436
12.18 456
12.24 444
12.3 470
12.36 500
12.42 483
12.48 477
12.54 516
12.6 530
12.66 567
12.72 679
12.78 628
12.84 578
12.9 492
12.96 528
13.02 513
13.08 503
13.14 513
13.2 556
13.26 580
13.32 666
13.38 788
13.44 902
13.5 817
13.56 601
13.62 563
13.68 495
13.74 515
13.8 464
13.86 508
13.92 511
13.98 475
14.04 504
14.1 497
14.16 458
14.22 510
14.28 507
14.34 520
14.4 485
14.46 526
14.52 511
14.58 517
14.64 562
14.7 521
14.76 493
14.82 525
14.88 491
14.94 524
15 515
15.06 529
15.12 568
15.18 532
15.24 511
15.3 524
15.36 553
15.42 548
15.48 531
15.54 568
15.6 566
15.66 563
15.72 555
15.78 563
15.84 575
15.9 529
15.96 581
16.02 575
16.08 576
16.14 594
16.2 581
16.26 571
16.32 558
16.38 597
16.44 594
16.5 589
16.56 611
16.62 629
16.68 598
16.74 631
16.8 712
16.86 723
16.92 924
16.98 1176
17.04 1169
17.1 925
17.16 766
17.22 689
17.28 678
17.34 660
17.4 640
17.46 656
17.52 652
17.58 685
17.64 694
17.7 702
17.76 665
17.82 694
17.88 733
17.94 757
18 757
18.06 697
18.12 697
18.18 710
18.24 732
18.3 734
18.36 713
18.42 754
18.48 793
18.54 824
18.6 774
18.66 762
18.72 780
18.78 774
18.84 747
18.9 763
18.96 753
19.02 786
19.08 779
19.14 821
19.2 775
19.26 787
19.32 811
19.38 791
19.44 810
19.5 817
19.56 832
19.62 890
19.68 793
19.74 853
19.8 900
19.86 959
19.92 1052
19.98 1071
20 1118

File: 37-18.ASC
3 2228
3.06 1817
3.12 1550
3.18 1503
3.24 1505
3.3 1382
3.36 1349
3.42 1334
3.48 1293
3.54 1290
3.6 1251
3.66 1251
3.72 1157
3.78 1199
3.84 1176
3.9 1114
3.96 1181
4.02 1061
4.08 1103
4.14 1029
4.2 984
4.26 1049
4.32 1043
4.38 1016
4.44 1036
4.5 1036
4.56 1033
4.62 1037
4.68 992
4.74 1000
4.8 991
4.86 984
4.92 1016
4.98 1014
5.04 965
5.1 1051
5.16 1061
5.22 1170
5.28 1251
5.34 1363
5.4 1635
5.46 2138
5.52 1477
5.58 1159
5.64 1018
5.7 992
5.76 915
5.82 908
5.88 830
5.94 810
6 751
6.06 739
6.12 681
6.18 696
6.24 687
6.3 686
6.36 694
6.42 740
6.48 685
6.54 687
6.6 679
6.66 647
6.72 648
6.78 642
6.84 607
6.9 661
6.96 692
7.02 654
7.08 609
7.14 580
7.2 607
7.26 630
7.32 586
7.38 597
7.44 622
7.5 641
7.56 590
7.62 608
7.68 631
7.74 603
7.8 584
7.86 628
7.92 573
7.98 588
8.04 592
8.1 576
8.16 570
8.22 590
8.28 582
8.34 610
8.4 603
8.46 615
8.52 565
8.58 551
8.64 593
8.7 630
8.76 599
8.82 599
8.88 596
8.94 597
9 586
9.06 579
9.12 668
9.18 668
9.24 736
9.3 859
9.36 1030
9.42 932
9.48 695
9.54 680
9.6 607
9.66 575
9.72 601
9.78 552
9.84 584
9.9 568
9.96 614
10.02 592
10.08 617
10.14 564
10.2 600
10.26 571
10.32 604
10.38 554
10.44 592
10.5 574
10.56 596
10.62 576
10.68 614
10.74 759
10.8 861
10.86 783
10.92 669
10.98 647
11.04 659
11.1 627
11.16 584
11.22 568
11.28 546
11.34 564
11.4 555
11.46 566
11.52 598
11.58 601
11.64 567
11.7 580
11.76 569
11.82 558
11.88 539
11.94 547
12 583
12.06 561
12.12 560
12.18 568
12.24 622
12.3 662
12.36 635
12.42 604
12.48 601
12.54 595
12.6 630
12.66 582
12.72 592
12.78 612
12.84 590
12.9 590
12.96 592
13.02 599
13.08 599
13.14 603
13.2 592
13.26 601
13.32 657
13.38 588
13.44 614
13.5 630
13.56 636
13.62 618
13.68 632
13.74 639
13.8 590
13.86 675
13.92 633
13.98 639
14.04 620
14.1 622
14.16 661
14.22 627
14.28 717
14.34 691
14.4 675
14.46 651
14.52 627
14.58 684
14.64 628
14.7 662
14.76 672
14.82 694
14.88 697
14.94 691
15 652
15.06 683
15.12 681
15.18 685
15.24 737
15.3 725
15.36 755
15.42 741
15.48 727
15.54 689
15.6 744
15.66 675
15.72 732
15.78 716
15.84 732
15.9 745
15.96 690
16.02 747
16.08 762
16.14 735
16.2 764
16.26 729
16.32 740
16.38 778
16.44 822
16.5 840
16.56 863
16.62 812
16.68 846
16.74 938
16.8 921
16.86 1035
16.92 1401
16.98 2347
17.04 5006
17.1 4382
17.16 1298
17.22 1051
17.28 955
17.34 942
17.4 981
17.46 998
17.52 994
17.58 948
17.64 975
17.7 991
17.76 954
17.82 966
17.88 951
17.94 951
18 1007
18.06 951
18.12 1020
18.18 1026
18.24 1011
18.3 983
18.36 988
18.42 998
18.48 1041
18.54 1039
18.6 1090
18.66 1075
18.72 1124
18.78 1098
18.84 1102
18.9 1076
18.96 1104
19.02 1078
19.08 1117
19.14 1152
19.2 1120
19.26 1170
19.32 1128
19.38 1206
19.44 1255
19.5 1322
19.56 1260
19.62 1258
19.68 1138
19.74 1247
19.8 1247
19.86 1220
19.92 1228
19.98 1255
20 1261

File: 37-19.ASC
3 3264
3.06 2772
3.12 2567
3.18 2439
3.24 2281
3.3 2266
3.36 2158
3.42 1998
3.48 1968
3.54 1914
3.6 1777
3.66 1699
3.72 1677
3.78 1667
3.84 1598
3.9 1547
3.96 1483
4.02 1357
4.08 1328
4.14 1259
4.2 1234
4.26 1250
4.32 1160
4.38 1045
4.44 1101
4.5 1028
4.56 980
4.62 985
4.68 979
4.74 991
4.8 882
4.86 943
4.92 923
4.98 889
5.04 860
5.1 863
5.16 809
5.22 845
5.28 845
5.34 817
5.4 767
5.46 817
5.52 756
5.58 740
5.64 712
5.7 740
5.76 722
5.82 767
5.88 696
5.94 774
6 700
6.06 760
6.12 736
6.18 685
6.24 692
6.3 676
6.36 670
6.42 756
6.48 684
6.54 712
6.6 664
6.66 680
6.72 717
6.78 684
6.84 707
6.9 716
6.96 664
7.02 657
7.08 661
7.14 666
7.2 629
7.26 663
7.32 698
7.38 671
7.44 648
7.5 663
7.56 692
7.62 667
7.68 663
7.74 710
7.8 650
7.86 708
7.92 743
7.98 718
8.04 674
8.1 672
8.16 685
8.22 685
8.28 709
8.34 684
8.4 716
8.46 676
8.52 732
8.58 765
8.64 773
8.7 875
8.76 995
8.82 1185
8.88 1467
8.94 1913
9 3589
9.06 4192
9.12 993
9.18 756
9.24 706
9.3 652
9.36 630
9.42 674
9.48 650
9.54 709
9.6 698
9.66 802
9.72 839
9.78 982
9.84 1192
9.9 1501
9.96 2510
10.02 2063
10.08 793
10.14 696
10.2 655
10.26 636
10.32 626
10.38 637
10.44 646
10.5 619
10.56 681
10.62 620
10.68 610
10.74 651
10.8 613
10.86 601
10.92 612
10.98 622
11.04 657
11.1 612
11.16 580
11.22 612
11.28 554
11.34 649
11.4 620
11.46 625
11.52 617
11.58 613
11.64 611
11.7 568
11.76 604
11.82 624
11.88 623
11.94 619
12 593
12.06 612
12.12 679
12.18 622
12.24 616
12.3 613
12.36 633
12.42 702
12.48 689
12.54 683
12.6 721
12.66 786
12.72 997
12.78 1045
12.84 766
12.9 639
12.96 651
13.02 671
13.08 667
13.14 754
13.2 728
13.26 814
13.32 911
13.38 1157
13.44 1652
13.5 1129
13.56 770
13.62 688
13.68 678
13.74 638
13.8 705
13.86 623
13.92 650
13.98 681
14.04 739
14.1 691
14.16 685
14.22 713
14.28 698
14.34 716
14.4 681
14.46 783
14.52 663
14.58 712
14.64 727
14.7 738
14.76 700
14.82 744
14.88 779
14.94 749
15 753
15.06 769
15.12 746
15.18 761
15.24 783
15.3 769
15.36 763
15.42 844
15.48 752
15.54 738
15.6 833
15.66 775
15.72 821
15.78 824
15.84 807
15.9 850
15.96 788
16.02 880
16.08 826
16.14 791
16.2 865
16.26 809
16.32 872
16.38 887
16.44 931
16.5 863
16.56 824
16.62 937
16.68 929
16.74 988
16.8 1025
16.86 1080
16.92 1228
16.98 1552
17.04 1754
17.1 1191
17.16 1023
17.22 977
17.28 964
17.34 975
17.4 1030
17.46 982
17.52 997
17.58 1081
17.64 1046
17.7 1033
17.76 1060
17.82 1052
17.88 1133
17.94 1059
18 1201
18.06 1249
18.12 1104
18.18 1100
18.24 1097
18.3 1110
18.36 1193
18.42 1135
18.48 1244
18.54 1270
18.6 1307
18.66 1266
18.72 1270
18.78 1189
18.84 1210
18.9 1195
18.96 1245
19.02 1218
19.08 1257
19.14 1306
19.2 1310
19.26 1270
19.32 1265
19.38 1344
19.44 1367
19.5 1379
19.56 1346
19.62 1365
19.68 1405
19.74 1402
19.8 1400
19.86 1517
19.92 1707
19.98 1855
20 1708

File: 37-20-1.ASC
3 2384
3.06 2075
3.12 1854
3.18 1719
3.24 1646
3.3 1709
3.36 1661
3.42 1549
3.48 1614
3.54 1563
3.6 1597
3.66 1526
3.72 1474
3.78 1540
3.84 1538
3.9 1561
3.96 1589
4.02 1511
4.08 1547
4.14 1545
4.2 1573
4.26 1643
4.32 1549
4.38 1517
4.44 1581
4.5 1485
4.56 1614
4.62 1639
4.68 1625
4.74 1581
4.8 1648
4.86 1663
4.92 1630
4.98 1662
5.04 1654
5.1 1664
5.16 1666
5.22 1723
5.28 1790
5.34 1916
5.4 2057
5.46 2315
5.52 1900
5.58 1568
5.64 1471
5.7 1423
5.76 1378
5.82 1316
5.88 1255
5.94 1315
6 1226
6.06 1235
6.12 1202
6.18 1216
6.24 1205
6.3 1222
6.36 1190
6.42 1306
6.48 1440
6.54 1407
6.6 1285
6.66 1053
6.72 947
6.78 843
6.84 854
6.9 794
6.96 831
7.02 732
7.08 778
7.14 757
7.2 732
7.26 759
7.32 709
7.38 700
7.44 748
7.5 691
7.56 677
7.62 662
7.68 660
7.74 665
7.8 666
7.86 626
7.92 629
7.98 689
8.04 671
8.1 635
8.16 679
8.22 673
8.28 643
8.34 634
8.4 626
8.46 631
8.52 657
8.58 636
8.64 617
8.7 646
8.76 642
8.82 621
8.88 652
8.94 637
9 678
9.06 708
9.12 727
9.18 702
9.24 823
9.3 920
9.36 1116
9.42 1104
9.48 718
9.54 611
9.6 585
9.66 597
9.72 589
9.78 653
9.84 597
9.9 611
9.96 607
10.02 586
10.08 589
10.14 561
10.2 589
10.26 590
10.32 567
10.38 562
10.44 577
10.5 577
10.56 594
10.62 582
10.68 598
10.74 650
10.8 632
10.86 689
10.92 600
10.98 556
11.04 539
11.1 546
11.16 528
11.22 587
11.28 596
11.34 567
11.4 627
11.46 621
11.52 532
11.58 531
11.64 553
11.7 530
11.76 524
11.82 496
11.88 538
11.94 515
12 547
12.06 572
12.12 609
12.18 598
12.24 543
12.3 571
12.36 502
12.42 544
12.48 492
12.54 505
12.6 493
12.66 484
12.72 510
12.78 527
12.84 520
12.9 525
12.96 518
13.02 493
13.08 513
13.14 474
13.2 527
13.26 540
13.32 550
13.38 513
13.44 478
13.5 479
13.56 455
13.62 516
13.68 509
13.74 491
13.8 521
13.86 482
13.92 491
13.98 503
14.04 490
14.1 523
14.16 499
14.22 455
14.28 479
14.34 489
14.4 547
14.46 528
14.52 486
14.58 499
14.64 534
14.7 517
14.76 478
14.82 490
14.88 506
14.94 502
15 537
15.06 468
15.12 497
15.18 488
15.24 540
15.3 540
15.36 529
15.42 537
15.48 512
15.54 516
15.6 529
15.66 518
15.72 528
15.78 549
15.84 488
15.9 582
15.96 516
16.02 548
16.08 550
16.14 502
16.2 529
16.26 575
16.32 532
16.38 558
16.44 498
16.5 573
16.56 554
16.62 659
16.68 700
16.74 725
16.8 925
16.86 1214
16.92 2090
16.98 2333
17.04 2368
17.1 1256
17.16 730
17.22 593
17.28 618
17.34 568
17.4 543
17.46 593
17.52 559
17.58 576
17.64 619
17.7 633
17.76 577
17.82 583
17.88 593
17.94 552
18 616
18.06 555
18.12 590
18.18 630
18.24 612
18.3 593
18.36 611
18.42 589
18.48 656
18.54 660
18.6 677
18.66 611
18.72 628
18.78 612
18.84 657
18.9 658
18.96 615
19.02 647
19.08 625
19.14 598
19.2 677
19.26 656
19.32 731
19.38 672
19.44 699
19.5 730
19.56 735
19.62 714
19.68 695
19.74 705
19.8 731
19.86 674
19.92 658
19.98 709
20 659

File: 37-23.ASC
3 3031
3.06 2689
3.12 2464
3.18 2260
3.24 2171
3.3 2079
3.36 2055
3.42 1981
3.48 1909
3.54 1947
3.6 1848
3.66 1752
3.72 1664
3.78 1616
3.84 1667
3.9 1596
3.96 1592
4.02 1598
4.08 1509
4.14 1538
4.2 1518
4.26 1442
4.32 1463
4.38 1462
4.44 1386
4.5 1370
4.56 1363
4.62 1342
4.68 1296
4.74 1273
4.8 1221
4.86 1148
4.92 1213
4.98 1198
5.04 1174
5.1 1189
5.16 1166
5.22 1114
5.28 1091
5.34 1074
5.4 1048
5.46 1046
5.52 1021
5.58 1000
5.64 944
5.7 956
5.76 947
5.82 955
5.88 866
5.94 868
6 892
6.06 840
6.12 834
6.18 806
6.24 823
6.3 816
6.36 762
6.42 762
6.48 717
6.54 708
6.6 730
6.66 778
6.72 699
6.78 776
6.84 726
6.9 706
6.96 697
7.02 710
7.08 648
7.14 678
7.2 671
7.26 649
7.32 667
7.38 655
7.44 666
7.5 642
7.56 666
7.62 695
7.68 634
7.74 652
7.8 663
7.86 651
7.92 647
7.98 610
8.04 658
8.1 620
8.16 608
8.22 600
8.28 641
8.34 600
8.4 605
8.46 599
8.52 566
8.58 599
8.64 596
8.7 639
8.76 614
8.82 572
8.88 603
8.94 608
9 614
9.06 553
9.12 577
9.18 591
9.24 606
9.3 624
9.36 599
9.42 610
9.48 594
9.54 563
9.6 564
9.66 575
9.72 579
9.78 603
9.84 593
9.9 606
9.96 581
10.02 587
10.08 562
10.14 561
10.2 570
10.26 504
10.32 592
10.38 551
10.44 569
10.5 548
10.56 539
10.62 527
10.68 597
10.74 566
10.8 581
10.86 573
10.92 529
10.98 528
11.04 554
11.1 535
11.16 536
11.22 558
11.28 567
11.34 590
11.4 564
11.46 530
11.52 562
11.58 560
11.64 540
11.7 550
11.76 527
11.82 582
11.88 565
11.94 622
12 576
12.06 521
12.12 558
12.18 541
12.24 560
12.3 554
12.36 584
12.42 552
12.48 572
12.54 553
12.6 626
12.66 556
12.72 551
12.78 549
12.84 579
12.9 537
12.96 578
13.02 575
13.08 574
13.14 621
13.2 646
13.26 722
13.32 562
13.38 545
13.44 562
13.5 601
13.56 604
13.62 586
13.68 551
13.74 560
13.8 593
13.86 606
13.92 571
13.98 630
14.04 605
14.1 641
14.16 589
14.22 555
14.28 620
14.34 639
14.4 631
14.46 651
14.52 645
14.58 630
14.64 605
14.7 667
14.76 578
14.82 642
14.88 623
14.94 645
15 631
15.06 648
15.12 656
15.18 700
15.24 676
15.3 704
15.36 747
15.42 634
15.48 683
15.54 720
15.6 676
15.66 714
15.72 658
15.78 738
15.84 685
15.9 701
15.96 671
16.02 693
16.08 744
16.14 735
16.2 698
16.26 774
16.32 735
16.38 835
16.44 822
16.5 802
16.56 842
16.62 799
16.68 874
16.74 1298
16.8 1737
16.86 1828
16.92 3312
16.98 13143
17.04 6204
17.1 1240
17.16 1008
17.22 930
17.28 870
17.34 906
17.4 882
17.46 904
17.52 910
17.58 951
17.64 887
17.7 961
17.76 940
17.82 903
17.88 929
17.94 953
18 984
18.06 930
18.12 948
18.18 936
18.24 936
18.3 996
18.36 1005
18.42 1035
18.48 1011
18.54 998
18.6 1032
18.66 1020
18.72 1054
18.78 1041
18.84 1033
18.9 1048
18.96 1070
19.02 1082
19.08 1093
19.14 1111
19.2 1071
19.26 1107
19.32 1029
19.38 1119
19.44 1114
19.5 1071
19.56 1127
19.62 1082
19.68 1082
19.74 1142
19.8 1127
19.86 1152
19.92 1156
19.98 1120
20 1098

File: 37-24.ASC
3 2194
3.06 1799
3.12 1626
3.18 1538
3.24 1460
3.3 1482
3.36 1337
3.42 1439
3.48 1330
3.54 1320
3.6 1308
3.66 1275
3.72 1233
3.78 1303
3.84 1173
3.9 1220
3.96 1161
4.02 1204
4.08 1143
4.14 1148
4.2 1167
4.26 1156
4.32 1081
4.38 1144
4.44 1129
4.5 1125
4.56 1066
4.62 1179
4.68 1088
4.74 1130
4.8 1094
4.86 1079
4.92 1059
4.98 1088
5.04 1066
5.1 1067
5.16 1038
5.22 995
5.28 976
5.34 1013
5.4 1001
5.46 1047
5.52 1041
5.58 942
5.64 876
5.7 879
5.76 904
5.82 827
5.88 871
5.94 796
6 784
6.06 762
6.12 718
6.18 756
6.24 689
6.3 722
6.36 738
6.42 708
6.48 719
6.54 693
6.6 713
6.66 707
6.72 716
6.78 699
6.84 626
6.9 686
6.96 645
7.02 674
7.08 668
7.14 645
7.2 621
7.26 628
7.32 628
7.38 653
7.44 613
7.5 665
7.56 586
7.62 605
7.68 570
7.74 620
7.8 606
7.86 660
7.92 609
7.98 616
8.04 636
8.1 645
8.16 589
8.22 594
8.28 665
8.34 597
8.4 621
8.46 608
8.52 589
8.58 617
8.64 596
8.7 575
8.76 592
8.82 598
8.88 582
8.94 605
9 564
9.06 616
9.12 569
9.18 586
9.24 600
9.3 596
9.36 626
9.42 645
9.48 585
9.54 586
9.6 570
9.66 572
9.72 598
9.78 609
9.84 582
9.9 548
9.96 573
10.02 596
10.08 569
10.14 580
10.2 574
10.26 546
10.32 544
10.38 609
10.44 586
10.5 603
10.56 541
10.62 564
10.68 551
10.74 571
10.8 564
10.86 635
10.92 571
10.98 553
11.04 579
11.1 536
11.16 624
11.22 595
11.28 586
11.34 551
11.4 543
11.46 570
11.52 597
11.58 564
11.64 595
11.7 555
11.76 546
11.82 548
11.88 584
11.94 530
12 561
12.06 559
12.12 582
12.18 589
12.24 587
12.3 584
12.36 555
12.42 577
12.48 548
12.54 572
12.6 601
12.66 570
12.72 611
12.78 586
12.84 587
12.9 583
12.96 578
13.02 605
13.08 637
13.14 575
13.2 581
13.26 592
13.32 592
13.38 610
13.44 593
13.5 613
13.56 557
13.62 620
13.68 589
13.74 577
13.8 636
13.86 611
13.92 635
13.98 651
14.04 623
14.1 583
14.16 633
14.22 629
14.28 637
14.34 629
14.4 581
14.46 644
14.52 638
14.58 619
14.64 655
14.7 677
14.76 603
14.82 683
14.88 636
14.94 621
15 626
15.06 684
15.12 703
15.18 694
15.24 711
15.3 698
15.36 666
15.42 727
15.48 726
15.54 681
15.6 725
15.66 735
15.72 720
15.78 727
15.84 753
15.9 728
15.96 763
16.02 760
16.08 764
16.14 742
16.2 765
16.26 777
16.32 722
16.38 737
16.44 820
16.5 821
16.56 797
16.62 823
16.68 841
16.74 875
16.8 984
16.86 1059
16.92 1314
16.98 2103
17.04 3065
17.1 2478
17.16 1464
17.22 942
17.28 902
17.34 960
17.4 991
17.46 922
17.52 882
17.58 967
17.64 970
17.7 916
17.76 950
17.82 961
17.88 1065
17.94 1024
18 1037
18.06 1010
18.12 990
18.18 1019
18.24 1040
18.3 974
18.36 1087
18.42 1126
18.48 1070
18.54 1059
18.6 1067
18.66 1098
18.72 1095
18.78 1112
18.84 1100
18.9 1122
18.96 1158
19.02 1126
19.08 1119
19.14 1180
19.2 1135
19.26 1175
19.32 1212
19.38 1186
19.44 1204
19.5 1176
19.56 1192
19.62 1253
19.68 1288
19.74 1239
19.8 1283
19.86 1206
19.92 1263
19.98 1307
20 1267