Folder: CPC-code/xrd-UiO-67/standard

File: BPDC.xye
3   0   4.4
3.06   0   4.4
3.12   0   4.4
3.18   0   4.4
3.24   0   4.4
3.3   0   4.4
3.36   0   4.4
3.42   0   4.4
3.48   0   4.4
3.54   0   4.4
3.6   0   4.4
3.66   0   4.4
3.72   0   4.4
3.78   0   4.4
3.84   0   4.4
3.9   0   4.4
3.96   0   4.4
4.02   0   4.4
4.08   0   4.4
4.14   0   4.4
4.2   0   4.4
4.26   0   4.4
4.32   0   4.4
4.38   0   4.4
4.44   0   4.4
4.5   0   4.4
4.56   0   4.4
4.62   0   4.4
4.68   0   4.4
4.74   0   4.4
4.8   0   4.4
4.86   0   4.4
4.92   0   4.4
4.98   0   4.4
5.04   0   4.4
5.1   0   4.4
5.16   0   4.4
5.22   0   4.4
5.28   0   4.4
5.34   0   4.4
5.4   0   4.4
5.46   0   4.4
5.52   0   4.4
5.58   0   4.4
5.64   0   4.4
5.7   0   4.4
5.76   0   4.4
5.82   0   4.4
5.88   0   4.4
5.94   0   4.4
6   0   4.4
6.06   0   4.4
6.12   0   4.4
6.18   0   4.4
6.24   0   4.4
6.3   0   4.4
6.36   0   4.4
6.42   0   4.4
6.48   0   4.4
6.54   0   4.4
6.6   0   4.4
6.66   0   4.4
6.72   0   4.4
6.78   0   4.4
6.84   0   4.4
6.9   0   4.4
6.96   0   4.4
7.02   0   4.4
7.08   0   4.4
7.14   0   4.4
7.2   0   4.4
7.26   0   4.4
7.32   0   4.4
7.38   0   4.4
7.44   0   4.4
7.5   0   4.4
7.56   0   4.4
7.62   0   4.4
7.68   0   4.4
7.74   0   4.4
7.8   0   4.4
7.86   0   4.4
7.92   0   4.4
7.98   0   4.4
8.04   0   4.4
8.1   0.156344   4.4
8.16   0.170051   4.4
8.22   0.185641   4.4
8.28   0.203477   4.4
8.34   0.22401   4.4
8.4   0.247814   4.4
8.46   0.275621   4.4
8.52   0.308381   4.4
8.58   0.347344   4.4
8.64   0.394176   4.4
8.7   0.451149   4.4
8.76   0.521411   4.4
8.82   0.609432   4.4
8.88   0.721731   4.4
8.94   0.86811   4.4
9   1.06385   4.4
9.06   1.33382   4.4
9.12   1.72072   4.4
9.18   2.30275   4.4
9.24   3.23559   4.4
9.3   4.86507   4.4
9.36   8.08362   4.4
9.42   15.891   4.4
9.48   45.367   6.7355
9.54   145.879   12.078
9.6   91.9835   9.5908
9.66   26.5216   5.14992
9.72   11.3629   4.4
9.78   6.32491   4.4
9.84   4.00382   4.4
9.9   2.75404   4.4
9.96   2.00751   4.4
10.02   1.52709   4.4
10.08   1.20013   4.4
10.14   0.96775   4.4
10.2   0.796753   4.4
10.26   0.667312   4.4
10.32   0.566993   4.4
10.38   0.487682   4.4
10.44   0.423903   4.4
10.5   0.379539   4.4
10.56   0.337195   4.4
10.62   0.301998   4.4
10.68   0.272507   4.4
10.74   0.247644   4.4
10.8   0.226595   4.4
10.86   0.208745   4.4
10.92   0.193627   4.4
10.98   0.180899   4.4
11.04   0.0196473   4.4
11.1   0.0225462   4.4
11.16   0.0261363   4.4
11.22   0.0306559   4.4
11.28   0.0364551   4.4
11.34   0.0440657   4.4
11.4   0.0543258   4.4
11.46   0.0686195   4.4
11.52   0.0893623   4.4
11.58   0.121076   4.4
11.64   0.173015   4.4
11.7   0.266525   4.4
11.76   0.555182   4.4
11.82   1.08079   4.4
11.88   3.26252   4.4
11.94   7.84411   4.4
12   3.20519   4.4
12.06   1.10971   4.4
12.12   0.621239   4.4
12.18   0.450632   4.4
12.24   0.381517   4.4
12.3   0.357943   4.4
12.36   0.36025   4.4
12.42   0.381126   4.4
12.48   0.41865   4.4
12.54   0.474118   4.4
12.6   0.551653   4.4
12.66   0.658902   4.4
12.72   0.808984   4.4
12.78   1.02463   4.4
12.84   1.34714   4.4
12.9   1.85717   4.4
12.96   2.72866   4.4
13.02   4.39189   4.4
13.08   8.16686   4.4
13.14   20.7417   4.55431
13.2   72.4653   8.51266
13.26   76.3711   8.73906
13.32   22.0131   4.69181
13.38   8.46951   4.4
13.44   4.49863   4.4
13.5   2.77248   4.4
13.56   1.87302   4.4
13.62   1.34785   4.4
13.68   1.01547   4.4
13.74   0.792129   4.4
13.8   0.634963   4.4
13.86   0.520241   4.4
13.92   0.433973   4.4
13.98   0.367483   4.4
14.04   0.315164   4.4
14.1   0.273261   4.4
14.16   0.239184   4.4
14.22   0.211101   4.4
14.28   0.187685   4.4
14.34   0.167957   4.4
14.4   0.151182   4.4
14.46   0.136799   4.4
14.52   0.124374   4.4
14.58   0.113567   4.4
14.64   0.10411   4.4
14.7   0.0957858   4.4
14.76   0   4.4
14.82   0   4.4
14.88   0   4.4
14.94   0   4.4
15   0   4.4
15.06   0   4.4
15.12   0   4.4
15.18   0   4.4
15.24   0   4.4
15.3   0   4.4
15.36   0   4.4
15.42   0   4.4
15.48   0   4.4
15.54   0   4.4
15.6   0   4.4
15.66   0   4.4
15.72   10.3029   4.4
15.78   11.2225   4.4
15.84   12.271   4.4
15.9   13.4734   4.4
15.96   14.8615   4.4
16.02   16.4756   4.4
16.08   18.3674   4.4
16.14   20.6045   4.53922
16.2   23.2763   4.82455
16.26   26.503   5.1481
16.32   30.4492   5.51808
16.38   35.3459   5.94524
16.44   41.5239   6.4439
16.5   49.4716   7.03361
16.56   59.9338   7.74169
16.62   74.0909   8.60761
16.68   93.9039   9.6904
16.74   122.823   11.0825
16.8   167.368   12.9371
16.86   241.064   15.5262
16.92   375.646   19.3816
16.98   659.995   25.6904
17.04   1461.88   38.2345
17.1   4910.81   70.0772
17.16   10000   100
17.22   3461.59   58.8353
17.28   1138.56   33.7426
17.34   558.848   23.64
17.4   330.399   18.1769
17.46   217.204   14.7378
17.52   153.334   12.3828
17.58   113.898   10.6723
17.64   87.8866   9.37478
17.7   69.8461   8.3574
17.76   56.8298   7.53855
17.82   47.1341   6.86543
17.88   39.7203   6.3024
17.94   33.9254   5.82455
18   29.3108   5.41394
18.06   25.5766   5.05733
18.12   22.5126   4.74474
18.18   19.9675   4.4685
18.24   17.8306   4.4
18.3   16.0191   4.4
18.36   14.5434   4.4
18.42   13.2151   4.4
18.48   12.0642   4.4
18.54   11.061   4.4
18.6   10.1821   4.4
18.66   0.117696   4.4
18.72   0.131144   4.4
18.78   0.147108   4.4
18.84   0.166316   4.4
18.9   0.189853   4.4
18.96   0.219513   4.4
19.02   0.258919   4.4
19.08   0.320166   4.4
19.14   0.458434   4.4
19.2   0.576871   4.4
19.26   0.550239   4.4
19.32   0.644187   4.4
19.38   0.816859   4.4
19.44   1.08633   4.4
19.5   1.52241   4.4
19.56   2.28661   4.4
19.62   3.79817   4.4
19.68   7.4692   4.4
19.74   21.3484   4.62043
19.8   68.5268   8.27809
19.86   42.9752   6.55555
19.92   12.3973   4.4
19.98   5.31776   4.4
20   4.29363   4.4

File: hcp.xye
3   12.1452   4.4
3.06   13.6997   4.4
3.12   15.5725   4.4
3.18   17.8569   4.4
3.24   20.6826   4.54781
3.3   24.2349   4.9229
3.36   28.7857   5.36523
3.42   34.7464   5.8946
3.48   42.7636   6.53939
3.54   53.9007   7.34171
3.6   70.0048   8.36689
3.66   94.512   9.72173
3.72   134.4   11.5931
3.78   205.588   14.3383
3.84   350.771   18.7289
3.9   730.595   27.0295
3.96   2277.14   47.7194
4.02   6147.68   78.4072
4.08   2729.84   52.2479
4.14   832.203   28.8479
4.2   386.753   19.666
4.26   234.69   15.3196
4.32   158.337   12.5832
4.38   117.127   10.8225
4.44   93.0693   9.64724
4.5   78.4772   8.85874
4.56   69.6843   8.34771
4.62   64.8276   8.05156
4.68   62.9627   7.9349
4.74   63.6901   7.98061
4.8   67.015   8.18627
4.86   73.3522   8.56459
4.92   83.6883   9.14813
4.98   100.028   10.0014
5.04   126.546   11.2493
5.1   172.881   13.1484
5.16   265.625   16.298
5.22   515.547   22.7057
5.28   1545.75   39.316
5.34   2812.32   53.0313
5.4   1110.86   33.3295
5.46   655.423   25.6012
5.52   762.337   27.6105
5.58   1415.43   37.6222
5.64   4411.46   66.4188
5.7   10000   100
5.76   3760.68   61.3243
5.82   1214.23   34.8457
5.88   592.613   24.3436
5.94   352.868   18.7848
6   235.017   15.3303
6.06   168.997   12.9999
6.12   128.735   11.3461
6.18   102.876   10.1428
6.24   85.9862   9.27288
6.3   75.4395   8.68559
6.36   70.3323   8.38643
6.42   71.4946   8.45545
6.48   83.1242   9.11725
6.54   120.87   10.9941
6.6   274.884   16.5796
6.66   837.085   28.9324
6.72   586.079   24.2091
6.78   182.065   13.4931
6.84   84.0949   9.17033
6.9   52.286   7.23091
6.96   37.2039   6.0995
7.02   28.7427   5.36122
7.08   23.4444   4.84195
7.14   19.868   4.45736
7.2   8.2013   4.4
7.26   7.02895   4.4
7.32   6.26551   4.4
7.38   5.81153   4.4
7.44   5.62034   4.4
7.5   5.68576   4.4
7.56   6.04341   4.4
7.62   6.78763   4.4
7.68   8.11708   4.4
7.74   10.4494   4.4
7.8   15.1901   4.4
7.86   23.9629   4.89519
7.92   45.7699   6.76535
7.98   130.284   11.4142
8.04   401.431   20.0358
8.1   230.742   15.1902
8.16   67.4923   8.21537
8.22   30.0746   5.48403
8.28   17.4095   4.4
8.34   11.6034   4.4
8.4   8.55506   4.4
8.46   6.83815   4.4
8.52   5.86281   4.4
8.58   5.36159   4.4
8.64   5.35505   4.4
8.7   5.54076   4.4
8.76   6.0806   4.4
8.82   7.0895   4.4
8.88   8.82252   4.4
8.94   11.8329   4.4
9   17.427   4.4
9.06   29.2205   5.40559
9.12   61.5521   7.84551
9.18   198.989   14.1063
9.24   454.33   21.315
9.3   171.336   13.0896
9.36   55.9632   7.48086
9.42   29.3349   5.41617
9.48   19.4245   4.40732
9.54   15.7328   4.4
9.6   20.2108   4.49564
9.66   34.9837   5.9147
9.72   19.2981   4.4
9.78   12.1218   4.4
9.84   11.7623   4.4
9.9   14.5874   4.4
9.96   24.2961   4.92911
10.02   64.8201   8.05109
10.08   147.224   12.1336
10.14   62.3701   7.89747
10.2   25.8709   5.08635
10.26   18.3955   4.4
10.32   17.2641   4.4
10.38   19.0934   4.4
10.44   23.8746   4.88617
10.5   33.7744   5.81157
10.56   58.0525   7.61922
10.62   145.922   12.0798
10.68   267.351   16.3509
10.74   206.194   14.3595
10.8   469.505   21.6681
10.86   1077.34   32.8228
10.92   423.717   20.5844
10.98   139.235   11.7998
11.04   71.2038   8.43823
11.1   46.8382   6.84384
11.16   37.74   6.14329
11.22   38.5884   6.21196
11.28   55.6492   7.45984
11.34   142.21   11.9252
11.4   342.575   18.5088
11.46   147.287   12.1362
11.52   50.816   7.12853
11.58   27.6455   5.2579
11.64   19.3277   4.4
11.7   15.8969   4.4
11.76   15.0552   4.4
11.82   16.4823   4.4
11.88   21.2437   4.60908
11.94   33.8844   5.82103
12   77.2845   8.79116
12.06   258.506   16.0781
12.12   281.597   16.7809
12.18   88.9996   9.43396
12.24   55.7958   7.46966
12.3   39.1209   6.25467
12.36   16.8926   4.4
12.42   10.0238   4.4
12.48   7.02148   4.4
12.54   5.33931   4.4
12.6   4.29907   4.4
12.66   3.62706   4.4
12.72   3.1916   4.4
12.78   2.93079   4.4
12.84   2.82061   4.4
12.9   2.56105   4.4
12.96   2.83735   4.4
13.02   3.45432   4.4
13.08   4.81113   4.4
13.14   8.73212   4.4
13.2   21.58   4.64543
13.26   25.1028   5.01027
13.32   45.5636   6.75008
13.38   108.956   10.4382
13.44   45.871   6.77281
13.5   14.7162   4.4
13.56   7.2302   4.4
13.62   4.09583   4.4
13.68   2.74302   4.4
13.74   1.98652   4.4
13.8   1.53801   4.4
13.86   1.26395   4.4
13.92   1.10231   4.4
13.98   1.03419   4.4
14.04   1.13158   4.4
14.1   1.76739   4.4
14.16   1.80113   4.4
14.22   1.38808   4.4
14.28   1.62056   4.4
14.34   1.44489   4.4
14.4   1.6698   4.4
14.46   2.32962   4.4
14.52   3.81793   4.4
14.58   8.1175   4.4
14.64   26.5069   5.14848
14.7   53.9021   7.3418
14.76   18.9817   4.4
14.82   6.54919   4.4
14.88   3.41999   4.4
14.94   2.32858   4.4
15   1.9676   4.4
15.06   2.19497   4.4
15.12   3.18109   4.4
15.18   7.3713   4.4
15.24   15.9661   4.4
15.3   6.88454   4.4
15.36   3.93792   4.4
15.42   2.5365   4.4
15.48   1.58531   4.4
15.54   1.36632   4.4
15.6   1.38593   4.4
15.66   1.55549   4.4
15.72   1.95671   4.4
15.78   2.59136   4.4
15.84   3.80185   4.4
15.9   6.52448   4.4
15.96   15.7034   4.4
16.02   43.8766   6.62394
16.08   42.2109   6.49699
16.14   70.574   8.40083
16.2   39.7575   6.30536
16.26   17.2397   4.4
16.32   10.3775   4.4
16.38   6.18148   4.4
16.44   6.88199   4.4
16.5   16.3134   4.4
16.56   19.6978   4.43822
16.62   6.75306   4.4
16.68   3.30951   4.4
16.74   2.38396   4.4
16.8   2.14714   4.4
16.86   2.31561   4.4
16.92   3.02709   4.4
16.98   5.07473   4.4
17.04   9.92166   4.4
17.1   30.049   5.48169
17.16   51.0184   7.14272
17.22   16.8053   4.4
17.28   6.35801   4.4
17.34   4.27303   4.4
17.4   3.63952   4.4
17.46   2.25979   4.4
17.52   1.95119   4.4
17.58   2.16266   4.4
17.64   3.46923   4.4
17.7   9.28034   4.4
17.76   9.04545   4.4
17.82   4.12809   4.4
17.88   4.76635   4.4
17.94   11.872   4.4
18   10.4331   4.4
18.06   4.04802   4.4
18.12   2.69091   4.4
18.18   2.5382   4.4
18.24   2.85871   4.4
18.3   3.70294   4.4
18.36   5.43431   4.4
18.42   9.87416   4.4
18.48   26.9727   5.19352
18.54   57.652   7.59289
18.6   53.312   7.30151
18.66   48.0095   6.92889
18.72   18.18   4.4
18.78   12.1948   4.4
18.84   15.2817   4.4
18.9   36.2404   6.02
18.96   98.9701   9.94837
19.02   52.3318   7.23407
19.08   18.7134   4.4
19.14   12.5629   4.4
19.2   14.8413   4.4
19.26   32.1166   5.66715
19.32   52.325   7.2336
19.38   88.0227   9.38204
19.44   64.9025   8.05621
19.5   21.1654   4.60059
19.56   11.4765   4.4
19.62   11.261   4.4
19.68   23.862   4.88488
19.74   31.7859   5.6379
19.8   11.6222   4.4
19.86   6.27946   4.4
19.92   5.81203   4.4
19.98   9.05185   4.4
20   11.4652   4.4

File: hxl.xye
3   0   4.4
3.06   0   4.4
3.12   0   4.4
3.18   0   4.4
3.24   0   4.4
3.3   0   4.4
3.36   0   4.4
3.42   0   4.4
3.48   0   4.4
3.54   0   4.4
3.6   0   4.4
3.66   0   4.4
3.72   0   4.4
3.78   0   4.4
3.84   0   4.4
3.9   8.28865   4.4
3.96   9.01016   4.4
4.02   9.83012   4.4
4.08   10.7672   4.4
4.14   11.845   4.4
4.2   13.0929   4.4
4.26   14.5488   4.4
4.32   16.2616   4.4
4.38   18.2953   4.4
4.44   20.7354   4.55361
4.5   23.6977   4.86803
4.56   27.3424   5.229
4.62   31.896   5.64766
4.68   37.6873   6.13899
4.74   45.2078   6.72367
4.8   55.2193   7.43097
4.86   68.9523   8.30375
4.92   88.4989   9.40738
4.98   117.647   10.8465
5.04   174.094   13.1945
5.1   254.398   15.9499
5.16   408.61   20.2141
5.22   764.929   27.6574
5.28   2004.12   44.7674
5.34   6861.63   82.835
5.4   6008.09   77.5119
5.46   1729.59   41.5884
5.52   707.211   26.5934
5.58   396.456   19.9112
5.64   260.745   16.1476
5.7   192.025   13.8573
5.76   155.378   12.4651
5.82   135.864   11.6561
5.88   127.906   11.3095
5.94   129.229   11.3679
6   139.929   11.8291
6.06   162.466   12.7462
6.12   203.013   14.2483
6.18   275.536   16.5993
6.24   414.077   20.3489
6.3   716.861   26.7743
6.36   1615.3   40.1908
6.42   5509.35   74.225
6.48   9456.95   97.2469
6.54   3033.43   55.0766
6.6   1050.95   32.4184
6.66   535.694   23.1451
6.72   326.149   18.0596
6.78   221.166   14.8717
6.84   153.98   12.4089
6.9   119.49   10.9312
6.96   99.7377   9.98688
7.02   92.4627   9.61575
7.08   104.513   10.2232
7.14   189.753   13.7751
7.2   488.155   22.0942
7.26   293.376   17.1282
7.32   104.272   10.2114
7.38   57.9686   7.61371
7.44   40.4987   6.36386
7.5   31.2869   5.59347
7.56   25.5709   5.05677
7.62   21.6205   4.64979
7.68   18.7006   4.4
7.74   16.4375   4.4
7.8   14.6233   4.4
7.86   14.4633   4.4
7.92   13.3325   4.4
7.98   3.29119   4.4
8.04   3.21295   4.4
8.1   3.20478   4.4
8.16   3.26074   4.4
8.22   3.37959   4.4
8.28   3.56435   4.4
8.34   3.82238   4.4
8.4   4.16623   4.4
8.46   4.61514   4.4
8.52   5.19785   4.4
8.58   5.9573   4.4
8.64   6.95911   4.4
8.7   7.85782   4.4
8.76   9.76182   4.4
8.82   12.5096   4.4
8.88   16.8752   4.4
8.94   25.754   5.07484
9   40.5801   6.37025
9.06   49.5594   7.03985
9.12   79.5767   8.92058
9.18   165.406   12.861
9.24   525.194   22.9171
9.3   1340.68   36.6153
9.36   556.059   23.5809
9.42   172.347   13.1281
9.48   81.2715   9.01507
9.54   47.4498   6.88838
9.6   31.1656   5.58262
9.66   22.185   4.7101
9.72   16.765   4.4
9.78   13.2881   4.4
9.84   10.9691   4.4
9.9   10.8351   4.4
9.96   9.90272   4.4
10.02   9.37371   4.4
10.08   9.18449   4.4
10.14   9.31737   4.4
10.2   9.79779   4.4
10.26   10.7049   4.4
10.32   12.2027   4.4
10.38   14.634   4.4
10.44   18.6308   4.4
10.5   25.7279   5.07226
10.56   40.0295   6.32688
10.62   76.5696   8.7504
10.68   225.141   15.0047
10.74   594.364   24.3796
10.8   270.13   16.4356
10.86   92.5473   9.62015
10.92   54.2177   7.36327
10.98   44.9395   6.70369
11.04   47.6444   6.90249
11.1   61.7848   7.86033
11.16   97.184   9.8582
11.22   198.915   14.1037
11.28   636.51   25.2291
11.34   1439.36   37.9389
11.4   539.922   23.2362
11.46   176.354   13.2798
11.52   88.5486   9.41003
11.58   55.5497   7.45317
11.64   40.8127   6.38848
11.7   36.2534   6.02108
11.76   44.3821   6.66199
11.82   41.3298   6.42883
11.88   40.3833   6.35479
11.94   58.6354   7.65737
12   128.98   11.3569
12.06   428.767   20.7067
12.12   478.157   21.8668
12.18   142.446   11.9351
12.24   56.5204   7.51801
12.3   31.7283   5.63279
12.36   20.9604   4.57825
12.42   15.4192   4.4
12.48   12.3328   4.4
12.54   10.6413   4.4
12.6   9.94919   4.4
12.66   10.2487   4.4
12.72   11.9994   4.4
12.78   16.8143   4.4
12.84   30.2745   5.50223
12.9   95.5733   9.77616
12.96   197.925   14.0686
13.02   70.8376   8.4165
13.08   24.1371   4.91296
13.14   12.4808   4.4
13.2   7.8711   4.4
13.26   5.5536   4.4
13.32   4.2503   4.4
13.38   3.44802   4.4
13.44   2.92883   4.4
13.5   2.58572   4.4
13.56   2.3624   4.4
13.62   1.69656   4.4
13.68   1.67623   4.4
13.74   1.72067   4.4
13.8   1.83404   4.4
13.86   2.17372   4.4
13.92   2.49351   4.4
13.98   2.98219   4.4
14.04   3.73199   4.4
14.1   4.97176   4.4
14.16   7.43232   4.4
14.22   12.6374   4.4
14.28   17.8864   4.4
14.34   35.2626   5.93823
14.4   113.365   10.6473
14.46   256.379   16.0118
14.52   95.8724   9.79145
14.58   31.0949   5.57628
14.64   15.432   4.4
14.7   9.62391   4.4
14.76   6.84529   4.4
14.82   5.48078   4.4
14.88   4.908   4.4
14.94   4.93724   4.4
15   5.64916   4.4
15.06   7.51224   4.4
15.12   12.1543   4.4
15.18   27.1697   5.21246
15.24   91.5115   9.56616
15.3   119.183   10.9171
15.36   37.4657   6.12092
15.42   18.3343   4.4
15.48   10.1065   4.4
15.54   5.96431   4.4
15.6   4.39071   4.4
15.66   3.71056   4.4
15.72   3.5253   4.4
15.78   3.94236   4.4
15.84   4.96907   4.4
15.9   8.43021   4.4
15.96   17.7545   4.4
16.02   18.1754   4.4
16.08   37.6778   6.13823
16.14   99.2467   9.96226
16.2   47.1209   6.86447
16.26   15.7448   4.4
16.32   8.98474   4.4
16.38   7.79148   4.4
16.44   10.8369   4.4
16.5   28.7696   5.36373
16.56   51.0947   7.14806
16.62   18.1502   4.4
16.68   7.39506   4.4
16.74   4.64102   4.4
16.8   3.83214   4.4
16.86   3.80692   4.4
16.92   4.41938   4.4
16.98   5.96654   4.4
17.04   9.51999   4.4
17.1   19.5179   4.41791
17.16   62.3144   7.89395
17.22   143.565   11.9818
17.28   54.6311   7.39129
17.34   17.7892   4.4
17.4   8.8947   4.4
17.46   5.57724   4.4
17.52   4.11135   4.4
17.58   3.71123   4.4
17.64   5.19941   4.4
17.7   10.1421   4.4
17.76   5.33687   4.4
17.82   2.93695   4.4
17.88   3.52373   4.4
17.94   3.63837   4.4
18   2.14627   4.4
18.06   1.90973   4.4
18.12   1.92642   4.4
18.18   2.10469   4.4
18.24   2.44014   4.4
18.3   3.05734   4.4
18.36   3.99011   4.4
18.42   5.65402   4.4
18.48   9.01181   4.4
18.54   17.6002   4.4
18.6   52.3634   7.23625
18.66   140.375   11.848
18.72   64.5506   8.03434
18.78   23.0674   4.80285
18.84   20.0871   4.48186
18.9   25.3626   5.03613
18.96   11.7768   4.4
19.02   7.41764   4.4
19.08   6.7926   4.4
19.14   7.57575   4.4
19.2   9.83002   4.4
19.26   14.8817   4.4
19.32   27.8877   5.28088
19.38   77.0101   8.77554
19.44   203.315   14.2588
19.5   192.584   13.8775
19.56   62.2429   7.88942
19.62   28.16   5.3066
19.68   25.7361   5.07307
19.74   54.5904   7.38853
19.8   55.4391   7.44574
19.86   18.5903   4.4
19.92   9.06044   4.4
19.98   6.83541   4.4
20   6.88956   4.4

File: uio67.xye
3   0   4.4
3.06   0   4.4
3.12   0   4.4
3.18   0   4.4
3.24   0   4.4
3.3   0   4.4
3.36   0   4.4
3.42   0   4.4
3.48   0   4.4
3.54   0   4.4
3.6   0   4.4
3.66   0   4.4
3.72   0   4.4
3.78   0   4.4
3.84   0   4.4
3.9   0   4.4
3.96   0   4.4
4.02   0   4.4
4.08   0   4.4
4.14   0   4.4
4.2   0   4.4
4.26   10.1211   4.4
4.32   11.0122   4.4
4.38   12.0263   4.4
4.44   13.1871   4.4
4.5   14.5244   4.4
4.56   16.0757   4.4
4.62   17.8894   4.4
4.68   20.028   4.47526
4.74   22.5739   4.7512
4.8   25.6374   5.06334
4.86   29.3689   5.41931
4.92   33.9773   5.82901
4.98   39.76   6.30556
5.04   47.1519   6.86673
5.1   56.809   7.53718
5.16   72.318   8.504
5.22   90.4655   9.51134
5.28   116.513   10.7941
5.34   155.815   12.4826
5.4   219.12   14.8027
5.46   330.602   18.1825
5.52   553.742   23.5317
5.58   1111.18   33.3344
5.64   3305.58   57.4941
5.7   9911.06   99.5543
5.76   5238.62   72.3783
5.82   1547.86   39.3429
5.88   694.479   26.353
5.94   399.077   19.9769
6   262.037   16.1875
6.06   189.45   13.7641
6.12   148.495   12.1859
6.18   125.906   11.2208
6.24   116.488   10.7929
6.3   119.917   10.9507
6.36   141.733   11.9052
6.42   201.667   14.201
6.48   383.147   19.5741
6.54   1179.71   34.3468
6.6   2558.73   50.5839
6.66   945.446   30.7481
6.72   317.724   17.8248
6.78   162.29   12.7393
6.84   101.069   10.0533
6.9   70.283   8.3835
6.96   52.5162   7.24681
7.02   41.2345   6.42141
7.08   33.5538   5.79256
7.14   28.0419   5.29546
7.2   14.3199   4.4
7.26   11.8664   4.4
7.32   9.99264   4.4
7.38   8.5295   4.4
7.44   7.36535   4.4
7.5   6.42402   4.4
7.56   5.65212   4.4
7.62   5.01133   4.4
7.68   4.47357   4.4
7.74   4.01789   4.4
7.8   3.62842   4.4
7.86   3.46942   4.4
7.92   3.19368   4.4
7.98   2.95694   4.4
8.04   2.75362   4.4
8.1   0.251857   4.4
8.16   0.27826   4.4
8.22   0.309041   4.4
8.28   0.345222   4.4
8.34   0.388144   4.4
8.4   0.43959   4.4
8.46   0.501972   4.4
8.52   0.578621   4.4
8.58   0.674236   4.4
8.64   0.79562   4.4
8.7   0.952916   4.4
8.76   1.16178   4.4
8.82   1.4474   4.4
8.88   1.85236   4.4
8.94   2.4533   4.4
9   3.3992   4.4
9.06   5.01082   4.4
9.12   8.08042   4.4
9.18   15.0339   4.4
9.24   38.1245   6.1745
9.3   133.32   11.5464
9.36   142.15   11.9227
9.42   41.0053   6.40354
9.48   15.9911   4.4
9.54   8.638   4.4
9.6   5.45583   4.4
9.66   3.81507   4.4
9.72   2.87438   4.4
9.78   2.29716   4.4
9.84   1.92894   4.4
9.9   1.69167   4.4
9.96   1.54329   4.4
10.02   2.53084   4.4
10.08   2.59798   4.4
10.14   2.72669   4.4
10.2   2.91984   4.4
10.26   3.18645   4.4
10.32   3.54298   4.4
10.38   4.0166   4.4
10.44   4.65164   4.4
10.5   5.52233   4.4
10.56   6.75993   4.4
10.62   8.61496   4.4
10.68   11.619   4.4
10.74   17.0759   4.4
10.8   29.0222   5.38722
10.86   68.3583   8.26791
10.92   221.878   14.8956
10.98   203.536   14.2666
11.04   68.7143   8.28941
11.1   40.6043   6.37215
11.16   39.225   6.26299
11.22   51.2373   7.15802
11.28   85.7247   9.25877
11.34   202.96   14.2464
11.4   701.868   26.4928
11.46   847.468   29.1113
11.52   249.241   15.7874
11.58   93.745   9.6822
11.64   49.6012   7.04281
11.7   30.6164   5.53321
11.76   21.0338   4.58626
11.82   15.3106   4.4
11.88   11.6962   4.4
11.94   9.27439   4.4
12   7.57856   4.4
12.06   6.35143   4.4
12.12   5.44213   4.4
12.18   4.75798   4.4
12.24   4.24016   4.4
12.3   3.85066   4.4
12.36   3.56519   4.4
12.42   3.10869   4.4
12.48   3.01553   4.4
12.54   3.00367   4.4
12.6   3.08261   4.4
12.66   3.27341   4.4
12.72   3.6156   4.4
12.78   4.1816   4.4
12.84   5.10861   4.4
12.9   5.67534   4.4
12.96   8.58939   4.4
13.02   14.4061   4.4
13.08   28.8521   5.37142
13.14   85.2553   9.23338
13.2   260.304   16.1339
13.26   142.714   11.9463
13.32   41.7764   6.46346
13.38   18.5306   4.4
13.44   10.4985   4.4
13.5   6.7493   4.4
13.56   4.71887   4.4
13.62   3.5056   4.4
13.68   2.72922   4.4
13.74   2.20804   4.4
13.8   1.84701   4.4
13.86   1.5931   4.4
13.92   1.41554   4.4
13.98   1.29655   4.4
14.04   1.22695   4.4
14.1   1.20481   4.4
14.16   1.23714   4.4
14.22   1.34883   4.4
14.28   1.62741   4.4
14.34   2.54913   4.4
14.4   4.6635   4.4
14.46   3.518   4.4
14.52   3.54303   4.4
14.58   5.14646   4.4
14.64   9.43887   4.4
14.7   25.302   5.03011
14.76   83.5188   9.13886
14.82   58.3834   7.6409
14.88   16.7448   4.4
14.94   7.04313   4.4
15   3.90024   4.4
15.06   2.468   4.4
15.12   1.7025   4.4
15.18   1.24833   4.4
15.24   0.958324   4.4
15.3   0.763048   4.4
15.36   0.626472   4.4
15.42   0.528526   4.4
15.48   0.457478   4.4
15.54   0.406324   4.4
15.6   0.371017   4.4
15.66   0.349637   4.4
15.72   0.456923   4.4
15.78   0.475865   4.4
15.84   0.519025   4.4
15.9   0.59876   4.4
15.96   0.756495   4.4
16.02   1.08787   4.4
16.08   1.97393   4.4
16.14   5.67467   4.4
16.2   13.405   4.4
16.26   5.45926   4.4
16.32   1.94554   4.4
16.38   1.14403   4.4
16.44   0.885653   4.4
16.5   0.809261   4.4
16.56   0.825569   4.4
16.62   0.909551   4.4
16.68   1.0625   4.4
16.74   1.30516   4.4
16.8   1.68454   4.4
16.86   2.29795   4.4
16.92   3.35964   4.4
16.98   5.40525   4.4
17.04   10.1012   4.4
17.1   26.0771   5.10658
17.16   90.5747   9.51708
17.22   87.8518   9.37293
17.28   25.1913   5.01909
17.34   9.88177   4.4
17.4   5.30887   4.4
17.46   3.29778   4.4
17.52   2.24437   4.4
17.58   1.6274   4.4
17.64   1.23644   4.4
17.7   0.961963   4.4
17.76   0.778759   4.4
17.82   0.646144   4.4
17.88   0.547839   4.4
17.94   0.47386   4.4
18   0.417915   4.4
18.06   0.376045   4.4
18.12   0.345901   4.4
18.18   0.464169   4.4
18.24   0.468117   4.4
18.3   0.486803   4.4
18.36   0.52561   4.4
18.42   0.760802   4.4
18.48   0.904928   4.4
18.54   1.18262   4.4
18.6   1.85718   4.4
18.66   4.48308   4.4
18.72   11.337   4.4
18.78   5.72698   4.4
18.84   2.31665   4.4
18.9   1.62461   4.4
18.96   1.49226   4.4
19.02   1.56195   4.4
19.08   1.76377   4.4
19.14   2.10008   4.4
19.2   2.6184   4.4
19.26   3.42849   4.4
19.32   4.77104   4.4
19.38   7.2324   4.4
19.44   12.5695   4.4
19.5   29.4452   5.42634
19.56   97.8619   9.89252
19.62   108.912   10.4361
19.68   38.7376   6.22395
19.74   28.8046   5.36699
19.8   56.7605   7.53396
19.86   161.5   12.7083
19.92   93.1193   9.64983
19.98   28.1841   5.30887
20   20.7799   4.55849