Folder: CPC-code/xrd-UiO-67/standard (part 2)

File: UiO.ASC
3 1016
3.06 968
3.12 884
3.18 833
3.24 811
3.3 835
3.36 764
3.42 781
3.48 768
3.54 748
3.6 715
3.66 714
3.72 725
3.78 653
3.84 722
3.9 667
3.96 673
4.02 643
4.08 632
4.14 628
4.2 631
4.26 607
4.32 607
4.38 593
4.44 581
4.5 649
4.56 605
4.62 597
4.68 625
4.74 620
4.8 680
4.86 707
4.92 698
4.98 791
5.04 829
5.1 969
5.16 1054
5.22 1157
5.28 1294
5.34 1419
5.4 1822
5.46 2232
5.52 2952
5.58 3777
5.64 5423
5.7 11741
5.76 12020
5.82 1562
5.88 1060
5.94 924
6 923
6.06 905
6.12 914
6.18 959
6.24 1072
6.3 1236
6.36 1418
6.42 1737
6.48 2183
6.54 2978
6.6 5485
6.66 3102
6.72 724
6.78 704
6.84 648
6.9 617
6.96 626
7.02 583
7.08 537
7.14 574
7.2 570
7.26 575
7.32 565
7.38 532
7.44 528
7.5 520
7.56 522
7.62 537
7.68 544
7.74 522
7.8 548
7.86 487
7.92 468
7.98 462
8.04 517
8.1 541
8.16 488
8.22 489
8.28 498
8.34 472
8.4 516
8.46 578
8.52 502
8.58 474
8.64 492
8.7 552
8.76 572
8.82 572
8.88 602
8.94 666
9 703
9.06 849
9.12 1059
9.18 1344
9.24 1678
9.3 2861
9.36 5034
9.42 1131
9.48 616
9.54 556
9.6 530
9.66 507
9.72 509
9.78 529
9.84 512
9.9 521
9.96 506
10.02 520
10.08 471
10.14 494
10.2 515
10.26 530
10.32 563
10.38 549
10.44 539
10.5 602
10.56 590
10.62 660
10.68 775
10.74 941
10.8 1230
10.86 1551
10.92 2718
10.98 3862
11.04 929
11.1 693
11.16 662
11.22 727
11.28 844
11.34 1035
11.4 1759
11.46 2852
11.52 823
11.58 563
11.64 498
11.7 513
11.76 530
11.82 514
11.88 500
11.94 543
12 549
12.06 499
12.12 541
12.18 522
12.24 474
12.3 523
12.36 504
12.42 488
12.48 514
12.54 457
12.6 468
12.66 518
12.72 516
12.78 516
12.84 514
12.9 520
12.96 521
13.02 594
13.08 614
13.14 700
13.2 1016
13.26 885
13.32 490
13.38 540
13.44 548
13.5 519
13.56 531
13.62 486
13.68 513
13.74 524
13.8 550
13.86 521
13.92 569
13.98 548
14.04 562
14.1 559
14.16 600
14.22 588
14.28 617
14.34 703
14.4 1054
14.46 789
14.52 561
14.58 532
14.64 551
14.7 606
14.76 671
14.82 651
14.88 578
14.94 535
15 557
15.06 530
15.12 550
15.18 603
15.24 583
15.3 561
15.36 579
15.42 567
15.48 511
15.54 542
15.6 580
15.66 568
15.72 573
15.78 584
15.84 580
15.9 574
15.96 595
16.02 595
16.08 605
16.14 610
16.2 666
16.26 622
16.32 627
16.38 642
16.44 645
16.5 606
16.56 657
16.62 652
16.68 634
16.74 638
16.8 676
16.86 744
16.92 841
16.98 708
17.04 747
17.1 758
17.16 986
17.22 1016
17.28 725
17.34 686
17.4 686
17.46 665
17.52 719
17.58 678
17.64 748
17.7 728
17.76 781
17.82 728
17.88 683
17.94 751
18 698
18.06 733
18.12 743
18.18 752
18.24 780
18.3 778
18.36 757
18.42 761
18.48 815
18.54 742
18.6 750
18.66 784
18.72 803
18.78 770
18.84 820
18.9 837
18.96 848
19.02 765
19.08 807
19.14 883
19.2 843
19.26 866
19.32 865
19.38 872
19.44 998
19.5 1205
19.56 1736
19.62 1708
19.68 1133
19.74 1152
19.8 1594
19.86 2921
19.92 1907
19.98 956
20 980

File: ZrFA.xye
3   0   4.4
3.06   0   4.4
3.12   0   4.4
3.18   0   4.4
3.24   0   4.4
3.3   0   4.4
3.36   0   4.4
3.42   0   4.4
3.48   0   4.4
3.54   0   4.4
3.6   0   4.4
3.66   0   4.4
3.72   0   4.4
3.78   0   4.4
3.84   0   4.4
3.9   0   4.4
3.96   0   4.4
4.02   0   4.4
4.08   0   4.4
4.14   0   4.4
4.2   0   4.4
4.26   0   4.4
4.32   0   4.4
4.38   0   4.4
4.44   0   4.4
4.5   0   4.4
4.56   0   4.4
4.62   0   4.4
4.68   0   4.4
4.74   0   4.4
4.8   0   4.4
4.86   0   4.4
4.92   0   4.4
4.98   0   4.4
5.04   0   4.4
5.1   0   4.4
5.16   0   4.4
5.22   0   4.4
5.28   0   4.4
5.34   0   4.4
5.4   0   4.4
5.46   0   4.4
5.52   0   4.4
5.58   0   4.4
5.64   0   4.4
5.7   0   4.4
5.76   0   4.4
5.82   0   4.4
5.88   0   4.4
5.94   0   4.4
6   0   4.4
6.06   0   4.4
6.12   0   4.4
6.18   0   4.4
6.24   0   4.4
6.3   0   4.4
6.36   0   4.4
6.42   0   4.4
6.48   0   4.4
6.54   0   4.4
6.6   0   4.4
6.66   0   4.4
6.72   0   4.4
6.78   0   4.4
6.84   0   4.4
6.9   0   4.4
6.96   0   4.4
7.02   0   4.4
7.08   0   4.4
7.14   0   4.4
7.2   0   4.4
7.26   0   4.4
7.32   0   4.4
7.38   0   4.4
7.44   9.28455   4.4
7.5   16.3768   4.4
7.56   17.9007   4.4
7.62   19.6478   4.43259
7.68   21.664   4.65446
7.74   24.0076   4.89975
7.8   26.7535   5.17238
7.86   29.9996   5.47719
7.92   33.8752   5.82024
7.98   38.5546   6.20924
8.04   44.2769   6.65409
8.1   51.3773   7.1678
8.16   60.3375   7.76772
8.22   71.8705   8.47765
8.28   87.0675   9.33099
8.34   107.668   10.3763
8.4   145.646   12.0684
8.46   188.879   13.7433
8.52   255.683   15.9901
8.58   367.344   19.1662
8.64   576   24
8.7   1043.24   32.2992
8.76   2605.91   51.0481
8.82   8280.34   90.9964
8.88   8345.39   91.3531
8.94   7898.45   88.8732
9   3106.68   55.7376
9.06   1157.63   34.0239
9.12   628.316   25.0662
9.18   411.187   20.2777
9.24   303.3   17.4155
9.3   246.567   15.7025
9.36   219.376   14.8114
9.42   213.659   14.6171
9.48   229.137   15.1373
9.54   273.218   16.5293
9.6   368.007   19.1835
9.66   576.721   24.015
9.72   1138.47   33.7412
9.78   3477.85   58.9733
9.84   9156.65   95.6904
9.9   3995.45   63.2096
9.96   1241.31   35.2322
10.02   586.591   24.2196
10.08   345.649   18.5916
10.14   229.232   15.1404
10.2   164.319   12.8187
10.26   124.418   11.1543
10.32   89.7502   9.47366
10.38   72.128   8.49282
10.44   53.8217   7.33633
10.5   45.0881   6.71477
10.56   38.8588   6.23368
10.62   34.9032   5.90789
10.68   34.2182   5.84964
10.74   44.7333   6.6883
10.8   86.7477   9.31385
10.86   56.1493   7.49329
10.92   27.3204   5.22689
10.98   19.4409   4.40918
11.04   15.8997   4.4
11.1   13.6878   4.4
11.16   13.271   4.4
11.22   12.1286   4.4
11.28   11.2282   4.4
11.34   2.08166   4.4
11.4   2.12659   4.4
11.46   2.23906   4.4
11.52   2.4017   4.4
11.58   2.6171   4.4
11.64   2.89224   4.4
11.7   3.23887   4.4
11.76   3.67476   4.4
11.82   4.22596   4.4
11.88   7.19069   4.4
11.94   8.30845   4.4
12   9.75382   4.4
12.06   11.6734   4.4
12.12   14.3102   4.4
12.18   18.0913   4.4
12.24   23.8267   4.88126
12.3   33.1409   5.75682
12.36   50.1873   7.0843
12.42   86.4148   9.29595
12.48   192.672   13.8806
12.54   649.509   25.4855
12.6   1084.38   32.93
12.66   351.431   18.7465
12.72   130.887   11.4406
12.78   75.7599   8.70402
12.84   56.3325   7.5055
12.9   50.7258   7.1222
12.96   53.7362   7.3305
13.02   65.8144   8.11261
13.08   92.9103   9.639
13.14   154.442   12.4275
13.2   333.979   18.2751
13.26   1113.21   33.3647
13.32   2173.86   46.6247
13.38   738.799   27.1809
13.44   247.523   15.7329
13.5   123.509   11.1135
13.56   74.0695   8.60636
13.62   49.3674   7.02619
13.68   35.3169   5.9428
13.74   26.5711   5.15472
13.8   20.7555   4.55582
13.86   16.6887   4.4
13.92   13.7302   4.4
13.98   11.5084   4.4
14.04   9.79558   4.4
14.1   7.40045   4.4
14.16   6.39539   4.4
14.22   5.58182   4.4
14.28   4.91404   4.4
14.34   4.35922   4.4
14.4   3.89326   4.4
14.46   3.49817   4.4
14.52   3.20211   4.4
14.58   2.91462   4.4
14.64   2.66616   4.4
14.7   2.45027   4.4
14.76   2.26195   4.4
14.82   0.0670422   4.4
14.88   0.074767   4.4
14.94   0.083907   4.4
15   0.0948297   4.4
15.06   0.10803   4.4
15.12   0.124222   4.4
15.18   0.144293   4.4
15.24   0.198876   4.4
15.3   0.234137   4.4
15.36   0.280159   4.4
15.42   0.341928   4.4
15.48   0.427726   4.4
15.54   0.552131   4.4
15.6   0.742774   4.4
15.66   1.05721   4.4
15.72   1.63153   4.4
15.78   2.85202   4.4
15.84   6.37567   4.4
15.9   21.5729   4.64466
15.96   39.4542   6.28126
16.02   13.057   4.4
16.08   4.56525   4.4
16.14   2.40771   4.4
16.2   1.8219   4.4
16.26   1.48274   4.4
16.32   1.43755   4.4
16.38   1.52447   4.4
16.44   1.84105   4.4
16.5   2.72019   4.4
16.56   4.98214   4.4
16.62   14.5669   4.4
16.68   29.5378   5.43487
16.74   11.0969   4.4
16.8   4.43091   4.4
16.86   3.24296   4.4
16.92   2.79685   4.4
16.98   2.74218   4.4
17.04   2.90941   4.4
17.1   3.26001   4.4
17.16   3.81661   4.4
17.22   4.65698   4.4
17.28   5.94493   4.4
17.34   8.02336   4.4
17.4   11.6818   4.4
17.46   19.0267   4.4
17.52   38.5052   6.20525
17.58   118.563   10.8887
17.64   264.42   16.261
17.7   132.459   11.5091
17.76   83.0706   9.11431
17.82   45.1293   6.71783
17.88   66.3988   8.14854
17.94   110.574   10.5154
18   46.0571   6.78654
18.06   26.3322   5.13149
18.12   27.6877   5.26191
18.18   44.6684   6.68345
18.24   122.032   11.0468
18.3   348.432   18.6663
18.36   180.019   13.4171
18.42   54.9578   7.41335
18.48   25.775   5.07691
18.54   15.4515   4.4
18.6   11.4394   4.4
18.66   8.85212   4.4
18.72   7.35815   4.4
18.78   6.47516   4.4
18.84   6.02846   4.4
18.9   5.80108   4.4
18.96   5.78557   4.4
19.02   5.95939   4.4
19.08   6.32477   4.4
19.14   6.67712   4.4
19.2   7.49609   4.4
19.26   8.73329   4.4
19.32   10.4983   4.4
19.38   13.0871   4.4
19.44   16.9782   4.4
19.5   23.571   4.855
19.56   35.7485   5.979
19.62   62.935   7.93316
19.68   155.742   12.4797
19.74   484.452   22.0103
19.8   396.422   19.9103
19.86   193.739   13.919
19.92   212.947   14.5927
19.98   514.521   22.6831
20   725.806   26.9408